problems,answers,test_problems,test_answers,opacity,intensity,trials.thisRepN,trials.thisTrialN,trials.thisN,trials.thisIndex,trials_2.thisRepN,trials_2.thisTrialN,trials_2.thisN,trials_2.thisIndex,thisRow.t,notes,instructions.started,text_4.started,instructions.stopped,trial.started,problem.started,textbox.started,button_2.started,trial.stopped,textbox.text,button_2.numClicks,button_2.timesOn,button_2.timesOff,round_2.started,instruction_2.started,instruction_2.stopped,round_2.stopped,distraction.started,text_3.started,textbox_3.started,button.started,notif_polygon.started,notif_sound.started,notif_polygon.stopped,notif_sound.stopped,distraction.stopped,textbox_3.text,button.numClicks,button.timesOn,button.timesOff,participant,session,date,expName,psychopyVersion,frameRate,expStart
,,,,,,,,,,,,,,,,0.0089485,0.0318423,3.0154259,,,,,,,,,,,,,,,,,,,,,,,,,,,393448,1,2024-11-22_15h30.33.848,distraction and problem solving,2024.1.5,None,2024-11-22 15h30.58.797924 +0530
5+7-4,8,,,,,0,0,0,0,,,,,3.114662,,,,,3.0467603,3.114662,3.114662,3.114662,16.5723661,8,1,[13.506204799981788],[13.506216499954462],,,,,,,,,,,,,,,,,,393448,1,2024-11-22_15h30.33.848,distraction and problem solving,2024.1.5,None,2024-11-22 15h30.58.797924 +0530
4+9-1,12,,,,,0,1,1,7,,,,,16.6030892,,,,,16.5742601,16.6030892,16.6030892,16.6030892,24.9561754,12,1,[8.374104900052771],[8.374119900166988],,,,,,,,,,,,,,,,,,393448,1,2024-11-22_15h30.33.848,distraction and problem solving,2024.1.5,None,2024-11-22 15h30.58.797924 +0530
7-4+2,5,,,,,0,2,2,9,,,,,24.9919932,,,,,24.9573027,24.9919932,24.9919932,24.9919932,33.7904838,"5
",1,[8.826248799916357],[8.826266899937764],,,,,,,,,,,,,,,,,,393448,1,2024-11-22_15h30.33.848,distraction and problem solving,2024.1.5,None,2024-11-22 15h30.58.797924 +0530
1+3-9,-5,,,,,0,3,3,2,,,,,33.8202395,,,,,33.7915073,33.8202395,33.8202395,33.8202395,53.1126659,-3,1,[19.314849300077185],[19.314872599905357],,,,,,,,,,,,,,,,,,393448,1,2024-11-22_15h30.33.848,distraction and problem solving,2024.1.5,None,2024-11-22 15h30.58.797924 +0530
4+8-2,10,,,,,0,4,4,3,,,,,53.1639339,,,,,53.1158851,53.1639339,53.1639339,53.1639339,57.9415923,10,1,[4.809396399883553],[4.809421899961308],,,,,,,,,,,,,,,,,,393448,1,2024-11-22_15h30.33.848,distraction and problem solving,2024.1.5,None,2024-11-22 15h30.58.797924 +0530
6-3+2,5,,,,,0,5,5,4,,,,,57.9898886,,,,,57.9437912,57.9898886,57.9898886,57.9898886,62.4008424,5,1,[4.444801199948415],[4.444811300141737],,,,,,,,,,,,,,,,,,393448,1,2024-11-22_15h30.33.848,distraction and problem solving,2024.1.5,None,2024-11-22 15h30.58.797924 +0530
2+3+6,11,,,,,0,6,6,8,,,,,62.4295045,,,,,62.4017114,62.4295045,62.4295045,62.4295045,66.0059583,11,1,[3.5981648000888526],[3.598188899923116],,,,,,,,,,,,,,,,,,393448,1,2024-11-22_15h30.33.848,distraction and problem solving,2024.1.5,None,2024-11-22 15h30.58.797924 +0530
8+1-3,6,,,,,0,7,7,5,,,,,66.0611823,,,,,66.0081247,66.0611823,66.0611823,66.0611823,71.5385967,6,1,[5.51746020000428],[5.517471299972385],,,,,,,,,,,,,,,,,,393448,1,2024-11-22_15h30.33.848,distraction and problem solving,2024.1.5,None,2024-11-22 15h30.58.797924 +0530
10-6+2,6,,,,,0,8,8,1,,,,,71.5711591,,,,,71.5394215,71.5711591,71.5711591,71.5711591,78.8807796,6,1,[7.330769999884069],[7.330783299868926],,,,,,,,,,,,,,,,,,393448,1,2024-11-22_15h30.33.848,distraction and problem solving,2024.1.5,None,2024-11-22 15h30.58.797924 +0530
5-7+1,-1,,,,,0,9,9,6,,,,,78.9173857,,,,,78.8818534,78.9173857,78.9173857,78.9173857,88.6483257,-1,1,[9.7596505000256],[9.75966260000132],,,,,,,,,,,,,,,,,,393448,1,2024-11-22_15h30.33.848,distraction and problem solving,2024.1.5,None,2024-11-22 15h30.58.797924 +0530
,,,,,,,,,,,,,,,,,,,,,,,,,,,,88.6489547,88.66147,89.7073032,89.6455135,,,,,,,,,,,,,,393448,1,2024-11-22_15h30.33.848,distraction and problem solving,2024.1.5,None,2024-11-22 15h30.58.797924 +0530
,,5+6-3,8,0,1,,,,,0,0,0,0,89.7073032,,,,,,,,,,,,,,,,,,89.6707751,89.7073032,89.7073032,89.7073032,90.1725446,90.15726107,90.997188,90.997188,96.7547658,8,1,[7.069876699941233],[7.069894900079817],393448,1,2024-11-22_15h30.33.848,distraction and problem solving,2024.1.5,None,2024-11-22 15h30.58.797924 +0530
,,6-5+3,4,1,0,,,,,0,1,1,9,96.7923362,,,,,,,,,,,,,,,,,,96.7565482,96.7923362,96.7923362,96.7923362,97.2635578,97.25545347,98.0876238,98.0876238,104.3108152,4,1,[7.5451673998031765],[7.545179499778897],393448,1,2024-11-22_15h30.33.848,distraction and problem solving,2024.1.5,None,2024-11-22 15h30.58.797924 +0530
,,2+4-8,-2,1,0,,,,,0,2,2,2,104.3420404,,,,,,,,,,,,,,,,,,104.3117198,104.3420404,104.3420404,104.3420404,104.8202349,104.8135025,105.660491,105.660491,109.4870496,-2,1,[5.166080499999225],[5.166098899906501],393448,1,2024-11-22_15h30.33.848,distraction and problem solving,2024.1.5,None,2024-11-22 15h30.58.797924 +0530
,,3+7-4,6,0,1,,,,,0,3,3,5,109.5336167,,,,,,,,,,,,,,,,,,109.4884024,109.5336167,109.5336167,109.5336167,110.0001617,109.9937983,110.8249996,110.8249996,114.1869631,6,1,[4.687181900022551],[4.687197299906984],393448,1,2024-11-22_15h30.33.848,distraction and problem solving,2024.1.5,None,2024-11-22 15h30.58.797924 +0530
,,2-6+3,-1,0,1,,,,,0,4,4,6,114.2188698,,,,,,,,,,,,,,,,,,114.1883749,114.2188698,114.2188698,114.2188698,114.7039158,114.697729,115.5354393,115.5354393,127.5989768,-1,1,[13.40319380001165],[13.403209300013259],393448,1,2024-11-22_15h30.33.848,distraction and problem solving,2024.1.5,None,2024-11-22 15h30.58.797924 +0530
,,1-7+5,-1,0,1,,,,,0,5,5,8,127.6356832,,,,,,,,,,,,,,,,,,127.6001497,127.6356832,127.6356832,127.6356832,128.1236549,128.1163898,128.9661134,128.940582,141.7453197,11,1,[14.134942600037903],[14.134971000021324],393448,1,2024-11-22_15h30.33.848,distraction and problem solving,2024.1.5,None,2024-11-22 15h30.58.797924 +0530
,,2+7-3,6,0,1,,,,,0,6,6,3,141.8038006,,,,,,,,,,,,,,,,,,141.747468,141.8038006,141.8038006,141.8038006,142.260439,142.2539342,143.0846707,143.0846707,150.4010103,6,1,[8.634301499929279],[8.634321699850261],393448,1,2024-11-22_15h30.33.848,distraction and problem solving,2024.1.5,None,2024-11-22 15h30.58.797924 +0530
,,9-3+1,7,1,0,,,,,0,7,7,1,150.4502841,,,,,,,,,,,,,,,,,,150.4024876,150.4502841,150.4502841,150.4502841,150.9198082,150.9128366,151.7497114,151.7497114,155.0607087,7,1,[4.643344399984926],[4.643370399950072],393448,1,2024-11-22_15h30.33.848,distraction and problem solving,2024.1.5,None,2024-11-22 15h30.58.797924 +0530
,,5-4+1,2,1,0,,,,,0,8,8,4,155.1331292,,,,,,,,,,,,,,,,,,155.0625738,155.1331292,155.1331292,155.1331292,155.5870107,155.580126,156.4564012,,163.3883506,2,1,[8.306969200028107],[8.306995599996299],393448,1,2024-11-22_15h30.33.848,distraction and problem solving,2024.1.5,None,2024-11-22 15h30.58.797924 +0530
,,3+7-2,8,1,0,,,,,0,9,9,7,163.4275452,,,,,,,,,,,,,,,,,,163.3896835,163.4275452,163.4275452,163.4275452,163.8965762,163.8891702,164.7852893,164.7372727,166.7127203,8,1,[3.3132446999661624],[3.3132587999571115],393448,1,2024-11-22_15h30.33.848,distraction and problem solving,2024.1.5,None,2024-11-22 15h30.58.797924 +0530
