problems,answers,test_problems,test_answers,opacity,intensity,trials.thisRepN,trials.thisTrialN,trials.thisN,trials.thisIndex,trials_2.thisRepN,trials_2.thisTrialN,trials_2.thisN,trials_2.thisIndex,thisRow.t,notes,instructions.started,text_4.started,instructions.stopped,trial.started,problem.started,textbox.started,button_2.started,trial.stopped,textbox.text,button_2.numClicks,button_2.timesOn,button_2.timesOff,round_2.started,instruction_2.started,round_2.stopped,distraction.started,text_3.started,textbox_3.started,button.started,notif_polygon.started,notif_sound.started,notif_sound.stopped,notif_polygon.stopped,distraction.stopped,textbox_3.text,button.numClicks,button.timesOn,button.timesOff,participant,session,date,expName,psychopyVersion,frameRate,expStart,
,,,,,,,,,,,,,,,,0.009371799882501364,0.0270389998331666,3.009271599818021,,,,,,,,,,,,,,,,,,,,,,,,,,565696,001,2024-11-22_17h13.43.143,distraction and problem solving,2024.1.5,None,2024-11-22 17h14.00.117964 +0530,
8+1-3,6,,,,,0,0,0,5,,,,,3.090360099915415,,,,,3.03807509993203,3.090360099915415,3.090360099915415,3.090360099915415,14.281935899984092,6,1,[11.231731100007892],[11.231747699901462],,,,,,,,,,,,,,,,,565696,001,2024-11-22_17h13.43.143,distraction and problem solving,2024.1.5,None,2024-11-22 17h14.00.117964 +0530,
2+3+6,11,,,,,0,1,1,8,,,,,14.320445199962705,,,,,14.287041299976408,14.320445199962705,14.320445199962705,14.320445199962705,20.66063559986651,11,1,[6.365866099949926],[6.365882999962196],,,,,,,,,,,,,,,,,565696,001,2024-11-22_17h13.43.143,distraction and problem solving,2024.1.5,None,2024-11-22 17h14.00.117964 +0530,
7-4+2,5,,,,,0,2,2,9,,,,,20.704214699799195,,,,,20.661838199943304,20.704214699799195,20.704214699799195,20.704214699799195,29.410173199838027,5,1,[8.732752099866048],[8.73277789982967],,,,,,,,,,,,,,,,,565696,001,2024-11-22_17h13.43.143,distraction and problem solving,2024.1.5,None,2024-11-22 17h14.00.117964 +0530,
4+8-2,10,,,,,0,3,3,3,,,,,29.46295559988357,,,,,29.411920399870723,29.46295559988357,29.46295559988357,29.46295559988357,34.32957519986667,10,1,[4.904048300115392],[4.904078999999911],,,,,,,,,,,,,,,,,565696,001,2024-11-22_17h13.43.143,distraction and problem solving,2024.1.5,None,2024-11-22 17h14.00.117964 +0530,
4+9-1,12,,,,,0,4,4,7,,,,,34.37199559994042,,,,,34.331735299900174,34.37199559994042,34.37199559994042,34.37199559994042,43.00115969986655,12,1,[8.6589558001142],[8.658972900127992],,,,,,,,,,,,,,,,,565696,001,2024-11-22_17h13.43.143,distraction and problem solving,2024.1.5,None,2024-11-22 17h14.00.117964 +0530,
6-3+2,5,,,,,0,5,5,4,,,,,43.03977969987318,,,,,43.00238499999978,43.03977969987318,43.03977969987318,43.03977969987318,55.76291039981879,5,1,[12.752704899990931],[12.752719399984926],,,,,,,,,,,,,,,,,565696,001,2024-11-22_17h13.43.143,distraction and problem solving,2024.1.5,None,2024-11-22 17h14.00.117964 +0530,
10-6+2,6,,,,,0,6,6,1,,,,,55.80131749995053,,,,,55.764074799837545,55.80131749995053,55.80131749995053,55.80131749995053,76.50967539986596,6,1,[20.73553130007349],[20.735552300000563],,,,,,,,,,,,,,,,,565696,001,2024-11-22_17h13.43.143,distraction and problem solving,2024.1.5,None,2024-11-22 17h14.00.117964 +0530,
1+3-9,-5,,,,,0,7,7,2,,,,,76.55444650002755,,,,,76.51113999984227,76.55444650002755,76.55444650002755,76.55444650002755,85.65819419990294,-5,1,[9.135519299888983],[9.13554389984347],,,,,,,,,,,,,,,,,565696,001,2024-11-22_17h13.43.143,distraction and problem solving,2024.1.5,None,2024-11-22 17h14.00.117964 +0530,
5-7+1,-1,,,,,0,8,8,6,,,,,85.71537719992921,,,,,85.65998919983394,85.71537719992921,85.71537719992921,85.71537719992921,106.45587079995312,-1,1,[20.781680299900472],[20.78169919992797],,,,,,,,,,,,,,,,,565696,001,2024-11-22_17h13.43.143,distraction and problem solving,2024.1.5,None,2024-11-22 17h14.00.117964 +0530,
5+7-4,8,,,,,0,9,9,0,,,,,106.4985401998274,,,,,106.45718199992552,106.4985401998274,106.4985401998274,106.4985401998274,112.81258239992894,8,1,[6.344514499884099],[6.34453219990246],,,,,,,,,,,,,,,,,565696,001,2024-11-22_17h13.43.143,distraction and problem solving,2024.1.5,None,2024-11-22 17h14.00.117964 +0530,
,,,,,,,,,,,,,,,,,,,,,,,,,,,,112.81350029981695,112.83273509982973,113.81630259985104,,,,,,,,,,,,,,565696,001,2024-11-22_17h13.43.143,distraction and problem solving,2024.1.5,None,2024-11-22 17h14.00.117964 +0530,
,,9-3+1,7,1,0,,,,,0,0,0,1,113.87460429989733,,,,,,,,,,,,,,,,,113.8378029000014,113.87460429989733,113.87460429989733,113.87460429989733,114.33547209994867,114.3152193665194,115.1516052999068,115.18328289990313,127.58744149981067,7,1,[13.736874900059775],[13.736891799839213],565696,001,2024-11-22_17h13.43.143,distraction and problem solving,2024.1.5,None,2024-11-22 17h14.00.117964 +0530,
,,1-7+5,-1,0,1,,,,,0,1,1,8,127.62780309980735,,,,,,,,,,,,,,,,,127.58958779997192,127.62780309980735,127.62780309980735,127.62780309980735,128.10366269992664,128.09596066648763,128.9497689998243,128.9497689998243,146.85949869989417,-1,1,[19.258084499975666],[19.258107899921015],565696,001,2024-11-22_17h13.43.143,distraction and problem solving,2024.1.5,None,2024-11-22 17h14.00.117964 +0530,
,,2+7-3,6,0,1,,,,,0,2,2,3,146.9123168999795,,,,,,,,,,,,,,,,,146.86120069981553,146.9123168999795,146.9123168999795,146.9123168999795,147.42239609989338,147.39709086652536,148.23912749998271,148.27951849997044,152.7195248999633,6,1,[5.840537799987942],[5.840560500044376],565696,001,2024-11-22_17h13.43.143,distraction and problem solving,2024.1.5,None,2024-11-22 17h14.00.117964 +0530,
,,2+4-8,-2,1,0,,,,,0,3,3,2,152.76480000000447,,,,,,,,,,,,,,,,,152.72113840002567,152.76480000000447,152.76480000000447,152.76480000000447,153.23391960002482,153.2216929665922,154.0510266998317,154.0510266998317,164.97781329997815,-2,1,[12.244860300095752],[12.244879900012165],565696,001,2024-11-22_17h13.43.143,distraction and problem solving,2024.1.5,None,2024-11-22 17h14.00.117964 +0530,
,,5+6-3,8,0,1,,,,,0,4,4,0,165.02332819998264,,,,,,,,,,,,,,,,,164.97917059995234,165.02332819998264,165.02332819998264,165.02332819998264,165.50582739990205,165.49846886663389,166.32723809988238,166.32723809988238,174.29646809981205,8,1,[9.30509619996883],[9.30510720005259],565696,001,2024-11-22_17h13.43.143,distraction and problem solving,2024.1.5,None,2024-11-22 17h14.00.117964 +0530,
,,6-5+3,4,1,0,,,,,0,5,5,9,174.32741019991226,,,,,,,,,,,,,,,,,174.2973491998855,174.32741019991226,174.32741019991226,174.32741019991226,174.83451539999805,174.81287286669638,175.6452325999271,175.6723610998597,180.05703939986415,4,1,[5.7528277998790145],[5.752839700086042],565696,001,2024-11-22_17h13.43.143,distraction and problem solving,2024.1.5,None,2024-11-22 17h14.00.117964 +0530,
,,2-6+3,-1,0,1,,,,,0,6,6,6,180.0878345000092,,,,,,,,,,,,,,,,,180.0578767999541,180.0878345000092,180.0878345000092,180.0878345000092,180.58036000002176,180.5738404666229,181.4000007000286,181.4000007000286,187.23116919980384,-1,1,[7.163993700174615],[7.1640069000422955],565696,001,2024-11-22_17h13.43.143,distraction and problem solving,2024.1.5,None,2024-11-22 17h14.00.117964 +0530,
,,3+7-2,8,1,0,,,,,0,7,7,7,187.26662709983066,,,,,,,,,,,,,,,,,187.2321462999098,187.26662709983066,187.26662709983066,187.26662709983066,187.75992839992978,187.7486266666713,188.5777431000024,188.5777431000024,198.82506299996749,8,1,[11.583140300121158],[11.583161500049755],565696,001,2024-11-22_17h13.43.143,distraction and problem solving,2024.1.5,None,2024-11-22 17h14.00.117964 +0530,
,,5-4+1,2,1,0,,,,,0,8,8,4,198.87301469990052,,,,,,,,,,,,,,,,,198.8265831999015,198.87301469990052,198.87301469990052,198.87301469990052,199.359500200022,199.3472168665069,200.1769961998798,200.1769961998798,230.47445579990745,2,1,[31.635769200045615],[31.6357867999468],565696,001,2024-11-22_17h13.43.143,distraction and problem solving,2024.1.5,None,2024-11-22 17h14.00.117964 +0530,
,,3+7-4,6,0,1,,,,,0,9,9,5,230.51641729986295,,,,,,,,,,,,,,,,,230.47577419993468,230.51641729986295,230.51641729986295,230.51641729986295,230.99819909990765,230.98691556655493,231.8166898000054,231.8166898000054,237.88339679990895,6,1,[7.394504299852997],[7.394530100049451],565696,001,2024-11-22_17h13.43.143,distraction and problem solving,2024.1.5,None,2024-11-22 17h14.00.117964 +0530,
