study_word,test_word,Reference,old_new,trials.thisRepN,trials.thisTrialN,trials.thisN,trials.thisIndex,trials_2.thisRepN,trials_2.thisTrialN,trials_2.thisN,trials_2.thisIndex,thisRow.t,notes,trial.started,text.started,slider.started,trial.stopped,slider.response,slider.rt,test.started,text_2.started,textbox.started,text_3.started,mouse.started,test.stopped,textbox.text,mouse.x,mouse.y,mouse.leftButton,mouse.midButton,mouse.rightButton,mouse.time,mouse.clicked_name,participant,session,date,expName,psychopyVersion,frameRate,expStart,
Poster,,,,0,0,0,14,,,,,0.12059369997587055,,0.07395930000348017,0.12059369997587055,0.12059369997587055,4.996591799950693,1,4.879368499969132,,,,,,,,,,,,,,,361463,001,2024-11-05_13h14.54.872,word priming exp,2024.1.5,None,2024-11-05 13h15.16.438620 +0530,
Cruise,,,,0,1,1,11,,,,,5.04171049996512,,4.999471099989023,5.04171049996512,5.04171049996512,5.984475899953395,1,0.9439413999789394,,,,,,,,,,,,,,,361463,001,2024-11-05_13h14.54.872,word priming exp,2024.1.5,None,2024-11-05 13h15.16.438620 +0530,
Police,,,,0,2,2,12,,,,,6.023625499976333,,5.984961899986956,6.023625499976333,6.023625499976333,6.859503199986648,1,0.8319618999958038,,,,,,,,,,,,,,,361463,001,2024-11-05_13h14.54.872,word priming exp,2024.1.5,None,2024-11-05 13h15.16.438620 +0530,
board,,,,0,3,3,4,,,,,6.900890799995977,,6.859988499956671,6.900890799995977,6.900890799995977,7.685563099978026,1,0.7856695000082254,,,,,,,,,,,,,,,361463,001,2024-11-05_13h14.54.872,word priming exp,2024.1.5,None,2024-11-05 13h15.16.438620 +0530,
Case,,,,0,4,4,10,,,,,7.725013499963097,,7.686042599962093,7.725013499963097,7.725013499963097,8.415811999992002,1,0.6915308000170626,,,,,,,,,,,,,,,361463,001,2024-11-05_13h14.54.872,word priming exp,2024.1.5,None,2024-11-05 13h15.16.438620 +0530,
phone,,,,0,5,5,2,,,,,8.458100699994247,,8.416421199974138,8.458100699994247,8.458100699994247,9.184792099986225,1,0.7270935000269674,,,,,,,,,,,,,,,361463,001,2024-11-05_13h14.54.872,word priming exp,2024.1.5,None,2024-11-05 13h15.16.438620 +0530,
cushion,,,,0,6,6,1,,,,,9.225915999966674,,9.185292099951766,9.225915999966674,9.225915999966674,10.038776699977461,1,0.8093891000025906,,,,,,,,,,,,,,,361463,001,2024-11-05_13h14.54.872,word priming exp,2024.1.5,None,2024-11-05 13h15.16.438620 +0530,
Keys,,,,0,7,7,13,,,,,10.079992399958428,,10.039492599957157,10.079992399958428,10.079992399958428,10.760502299992368,1,0.6791095000226051,,,,,,,,,,,,,,,361463,001,2024-11-05_13h14.54.872,word priming exp,2024.1.5,None,2024-11-05 13h15.16.438620 +0530,
Pastry,,,,0,8,8,9,,,,,10.801247900002636,,10.761004899977706,10.801247900002636,10.801247900002636,11.567883699957747,1,0.7675690000178292,,,,,,,,,,,,,,,361463,001,2024-11-05_13h14.54.872,word priming exp,2024.1.5,None,2024-11-05 13h15.16.438620 +0530,
T-shirt,,,,0,9,9,7,,,,,11.611258699966129,,11.568379599950276,11.611258699966129,11.611258699966129,12.314003999985289,1,0.7029232999775559,,,,,,,,,,,,,,,361463,001,2024-11-05_13h14.54.872,word priming exp,2024.1.5,None,2024-11-05 13h15.16.438620 +0530,
mouse,,,,0,10,10,8,,,,,12.35410309996223,,12.314591999980621,12.35410309996223,12.35410309996223,13.096290799963754,1,0.7435198999592103,,,,,,,,,,,,,,,361463,001,2024-11-05_13h14.54.872,word priming exp,2024.1.5,None,2024-11-05 13h15.16.438620 +0530,
marble,,,,0,11,11,3,,,,,13.135392799973488,,13.096773099969141,13.135392799973488,13.135392799973488,13.944145999965258,1,0.8060727000120096,,,,,,,,,,,,,,,361463,001,2024-11-05_13h14.54.872,word priming exp,2024.1.5,None,2024-11-05 13h15.16.438620 +0530,
book,,,,0,12,12,0,,,,,13.983405599952675,,13.944666299968958,13.983405599952675,13.983405599952675,14.733130499953404,1,0.7506049000076018,,,,,,,,,,,,,,,361463,001,2024-11-05_13h14.54.872,word priming exp,2024.1.5,None,2024-11-05 13h15.16.438620 +0530,
Chart,,,,0,13,13,6,,,,,14.772244299994782,,14.733638799982145,14.772244299994782,14.772244299994782,15.598816899990197,1,0.8263095999718644,,,,,,,,,,,,,,,361463,001,2024-11-05_13h14.54.872,word priming exp,2024.1.5,None,2024-11-05 13h15.16.438620 +0530,
Laptop,,,,0,14,14,5,,,,,15.640765899966937,,15.599305999989156,15.640765899966937,15.640765899966937,16.39155929995468,1,0.7472263000090607,,,,,,,,,,,,,,,361463,001,2024-11-05_13h14.54.872,word priming exp,2024.1.5,None,2024-11-05 13h15.16.438620 +0530,
,_ho_e,Phone,old,,,,,0,0,0,12,16.44711099995766,,,,,,,,16.416658199974336,16.44711099995766,16.44711099995766,16.44711099995766,0.03047669999068603,26.398530799953733,"phone
",[],[],[],[],[],[],[],361463,001,2024-11-05_13h14.54.872,word priming exp,2024.1.5,None,2024-11-05 13h15.16.438620 +0530,
,P_li_e,Police,old,,,,,0,1,1,7,26.433906999998726,,,,,,,,26.40343209996354,26.433906999998726,26.433906999998726,26.433906999998726,0.017022599990013987,26.689772699959576,,[-0.030555555555555555],[-0.30092592592592593],[1],[0],[0],[0.27989160001743585],['text_3'],361463,001,2024-11-05_13h14.54.872,word priming exp,2024.1.5,None,2024-11-05 13h15.16.438620 +0530,
,T_hi_t,Tshirt,old,,,,,0,2,2,2,26.721555399999488,,,,,,,,26.691403799981344,26.721555399999488,26.721555399999488,26.721555399999488,0.00545080000301823,36.694308599981014,tsh,[],[],[],[],[],[],[],361463,001,2024-11-05_13h14.54.872,word priming exp,2024.1.5,None,2024-11-05 13h15.16.438620 +0530,
,c_m_ra,Camera,new,,,,,0,3,3,19,36.72625179996248,,,,,,,,36.69585649995133,36.72625179996248,36.72625179996248,36.72625179996248,0.012418600032106042,45.61026259994833,camera,[-0.025],[-0.30648148148148147],[1],[0],[0],[8.905408399994485],['text_3'],361463,001,2024-11-05_13h14.54.872,word priming exp,2024.1.5,None,2024-11-05 13h15.16.438620 +0530,
,K_y_,Keys,old,,,,,0,4,4,8,45.65317549998872,,,,,,,,45.615416099957656,45.65317549998872,45.65317549998872,45.65317549998872,0.008489899977575988,48.861859199998435,keys,[-0.025],[-0.30648148148148147],[1],[0],[0],[3.23716100002639],['text_3'],361463,001,2024-11-05_13h14.54.872,word priming exp,2024.1.5,None,2024-11-05 13h15.16.438620 +0530,
,c_s_,Case,old,,,,,0,5,5,5,48.89413249999052,,,,,,,,48.864749200001825,48.89413249999052,48.89413249999052,48.89413249999052,0.0053459000191651285,52.85367859998951,case,[-0.025],[-0.30648148148148147],[1],[0],[0],[3.9829207000439055],['text_3'],361463,001,2024-11-05_13h14.54.872,word priming exp,2024.1.5,None,2024-11-05 13h15.16.438620 +0530,
,_ha_t,Chart,old,,,,,0,6,6,1,52.88552719994914,,,,,,,,52.85516389994882,52.88552719994914,52.88552719994914,52.88552719994914,0.0059062999789603055,56.25552029995015,chart,[-0.025],[-0.30648148148148147],[1],[0],[0],[3.3929728000075556],['text_3'],361463,001,2024-11-05_13h14.54.872,word priming exp,2024.1.5,None,2024-11-05 13h15.16.438620 +0530,
,_o_rd,Board,old,,,,,0,7,7,10,56.28878289996646,,,,,,,,56.25729409995256,56.28878289996646,56.28878289996646,56.28878289996646,0.007788499991875142,61.79113679996226,board,[-0.025],[-0.30648148148148147],[1],[0],[0],[5.524968999961857],['text_3'],361463,001,2024-11-05_13h14.54.872,word priming exp,2024.1.5,None,2024-11-05 13h15.16.438620 +0530,
,ta_l_,Table,new,,,,,0,8,8,15,61.837653399968985,,,,,,,,61.79599799995776,61.837653399968985,61.837653399968985,61.837653399968985,0.009172399993985891,61.95238370000152,,[-0.025],[-0.30648148148148147],[1],[0],[0],[0.14681629999540746],['text_3'],361463,001,2024-11-05_13h14.54.872,word priming exp,2024.1.5,None,2024-11-05 13h15.16.438620 +0530,
,_a_bl_,Marble,old,,,,,0,9,9,11,61.977731799997855,,,,,,,,61.95356739999261,61.977731799997855,61.977731799997855,61.977731799997855,0.0042434000060893595,65.18525109998882,table,[-0.025],[-0.30648148148148147],[1],[0],[0],[3.226111600000877],['text_3'],361463,001,2024-11-05_13h14.54.872,word priming exp,2024.1.5,None,2024-11-05 13h15.16.438620 +0530,
,_ru_s_,Cruise,old,,,,,0,10,10,6,65.23534849996213,,,,,,,,65.18775529996492,65.23534849996213,65.23534849996213,65.23534849996213,0.012875899963546544,68.85033329995349,cruise,[-0.025],[-0.30648148148148147],[1],[0],[0],[3.6485816999920644],['text_3'],361463,001,2024-11-05_13h14.54.872,word priming exp,2024.1.5,None,2024-11-05 13h15.16.438620 +0530,
,c_s_io_,Cushion,old,,,,,0,11,11,14,68.89610620000167,,,,,,,,68.85291549999965,68.89610620000167,68.89610620000167,68.89610620000167,0.010993300005793571,72.2555607999675,cushion,[-0.025],[-0.30648148148148147],[1],[0],[0],[3.390751199971419],['text_3'],361463,001,2024-11-05_13h14.54.872,word priming exp,2024.1.5,None,2024-11-05 13h15.16.438620 +0530,
,P_s_ry,Pastry,old,,,,,0,12,12,4,72.2961942999973,,,,,,,,72.25928649998968,72.2961942999973,72.2961942999973,72.2961942999973,0.007335600035730749,75.36187399999471,pastry,[-0.025],[-0.30648148148148147],[1],[0],[0],[3.0943879000260495],['text_3'],361463,001,2024-11-05_13h14.54.872,word priming exp,2024.1.5,None,2024-11-05 13h15.16.438620 +0530,
,P_st_r,Poster,old,,,,,0,13,13,9,75.4028453999781,,,,,,,,75.36396220000461,75.4028453999781,75.4028453999781,75.4028453999781,0.007642800046596676,80.4754046999733,pastry,[-0.025],[-0.30648148148148147],[1],[0],[0],[5.102735599968582],['text_3'],361463,001,2024-11-05_13h14.54.872,word priming exp,2024.1.5,None,2024-11-05 13h15.16.438620 +0530,
,_ou_e,mouse,old,,,,,0,14,14,3,80.52480479999213,,,,,,,,80.47824129997753,80.52480479999213,80.52480479999213,80.52480479999213,0.009068200015462935,83.36231389996829,mouse,[-0.025],[-0.30648148148148147],[1],[0],[0],[2.8742723000468686],['text_3'],361463,001,2024-11-05_13h14.54.872,word priming exp,2024.1.5,None,2024-11-05 13h15.16.438620 +0530,
,l_pt_p,Laptop,old,,,,,0,15,15,0,83.39554009999847,,,,,,,,83.36386179999681,83.39554009999847,83.39554009999847,83.39554009999847,0.00586720003047958,86.57862839999143,laptop,[-0.025],[-0.30648148148148147],[1],[0],[0],[3.20758869999554],['text_3'],361463,001,2024-11-05_13h14.54.872,word priming exp,2024.1.5,None,2024-11-05 13h15.16.438620 +0530,
,bo_t_e,Bottle,new,,,,,0,16,16,18,86.62578020000365,,,,,,,,86.5815618999768,86.62578020000365,86.62578020000365,86.62578020000365,0.011502300039865077,89.74471339996671,bottle,[-0.025],[-0.30648148148148147],[1],[0],[0],[3.150523599993903],['text_3'],361463,001,2024-11-05_13h14.54.872,word priming exp,2024.1.5,None,2024-11-05 13h15.16.438620 +0530,
,_oo_,Book,old,,,,,0,17,17,13,89.78989239997463,,,,,,,,89.74721099995077,89.78989239997463,89.78989239997463,89.78989239997463,0.010269699967466295,93.67995599994902,book,[-0.025],[-0.30648148148148147],[1],[0],[0],[3.9217870000284165],['text_3'],361463,001,2024-11-05_13h14.54.872,word priming exp,2024.1.5,None,2024-11-05 13h15.16.438620 +0530,
,v_s_,Vase,new,,,,,0,18,18,17,93.7191041999613,,,,,,,,93.68150009994861,93.7191041999613,93.7191041999613,93.7191041999613,0.01353739999467507,96.31679529999383,vase,[-0.025],[-0.30648148148148147],[1],[0],[0],[2.6206678000162356],['text_3'],361463,001,2024-11-05_13h14.54.872,word priming exp,2024.1.5,None,2024-11-05 13h15.16.438620 +0530,
,p_nc_l,Pencil,new,,,,,0,19,19,16,96.34455759997945,,,,,,,,96.31967269995948,96.34455759997945,96.34455759997945,96.34455759997945,0.0045914999791421,99.42563499999233,pencil,[-0.025],[-0.30648148148148147],[1],[0],[0],[3.1000525999697857],['text_3'],361463,001,2024-11-05_13h14.54.872,word priming exp,2024.1.5,None,2024-11-05 13h15.16.438620 +0530,
