reward_today,future_reward,delay,trials.thisRepN,trials.thisTrialN,trials.thisN,trials.thisIndex,thisRow.t,notes,trial.started,fixation.started,text.started,key_resp.started,fixation.stopped,trial.stopped,key_resp.keys,key_resp.rt,key_resp.duration,participant,session,date,expName,psychopyVersion,frameRate,expStart,
67,75,119,0,0,0,5,0.22544470010325313,,0.07085610018111765,0.22544470010325313,1.008232600055635,1.008232600055635,1.2362391001079232,11.534992600092664,t,10.502690799999982,None,458358,001,2024-11-20_22h04.39.878,delay discounting exp,2024.1.5,None,2024-11-20 22h04.52.798791 +0530,
49,60,89,0,1,1,4,11.57219220022671,,11.540231700055301,11.57219220022671,12.5541592000518,12.5541592000518,12.598290800116956,21.03518270002678,t,8.474629400065169,None,458358,001,2024-11-20_22h04.39.878,delay discounting exp,2024.1.5,None,2024-11-20 22h04.52.798791 +0530,
40,55,62,0,2,2,3,21.071438600076362,,21.037200500024483,21.071438600076362,22.050704300170764,22.050704300170764,22.094936800189316,29.798668900039047,t,7.731843300163746,None,458358,001,2024-11-20_22h04.39.878,delay discounting exp,2024.1.5,None,2024-11-20 22h04.52.798791 +0530,
27,50,21,0,3,3,2,29.833192200167105,,29.800482000224292,29.833192200167105,30.812547400128096,30.812547400128096,30.84611600008793,50.993717200122774,l,20.17403500014916,None,458358,001,2024-11-20_22h04.39.878,delay discounting exp,2024.1.5,None,2024-11-20 22h04.52.798791 +0530,
15,35,13,0,4,4,1,51.02004130021669,,50.995320700109005,51.02004130021669,52.00813930016011,52.00813930016011,52.024654200067744,59.056521699996665,l,7.035798700060695,None,458358,001,2024-11-20_22h04.39.878,delay discounting exp,2024.1.5,None,2024-11-20 22h04.52.798791 +0530,
78,80,162,0,5,5,6,59.07656320021488,,59.05755280004814,59.07656320021488,60.07521160016768,60.07521160016768,60.09153390000574,65.34210300003178,t,5.2624562999699265,None,458358,001,2024-11-20_22h04.39.878,delay discounting exp,2024.1.5,None,2024-11-20 22h04.52.798791 +0530,
11,30,7,0,6,6,0,65.3721892000176,,65.3443860001862,65.3721892000176,66.35378090012819,66.35378090012819,66.38733470020816,74.05656390008517,l,7.684543399838731,None,458358,001,2024-11-20_22h04.39.878,delay discounting exp,2024.1.5,None,2024-11-20 22h04.52.798791 +0530,
27,50,21,1,0,7,2,74.08552510011941,,74.05950050009415,74.08552510011941,75.07097080000676,75.07097080000676,75.08794320002198,84.33798700012267,t,9.249012500047684,None,458358,001,2024-11-20_22h04.39.878,delay discounting exp,2024.1.5,None,2024-11-20 22h04.52.798791 +0530,
78,80,162,1,1,8,6,84.36769920005463,,84.34026790014468,84.36769920005463,85.34877780009992,85.34877780009992,85.38212439999916,89.98398080002517,t,4.619758100016043,None,458358,001,2024-11-20_22h04.39.878,delay discounting exp,2024.1.5,None,2024-11-20 22h04.52.798791 +0530,
11,30,7,1,2,9,0,90.00846100016497,,89.98576750000939,90.00846100016497,91.00732110021636,91.00732110021636,91.02613410004415,96.31592910015024,l,5.294690999900922,None,458358,001,2024-11-20_22h04.39.878,delay discounting exp,2024.1.5,None,2024-11-20 22h04.52.798791 +0530,
15,35,13,1,3,10,1,96.34216290013865,,96.31769060017541,96.34216290013865,97.33141430001706,97.33141430001706,97.34733790019527,110.24716580007225,l,12.911791199818254,None,458358,001,2024-11-20_22h04.39.878,delay discounting exp,2024.1.5,None,2024-11-20 22h04.52.798791 +0530,
49,60,89,1,4,11,4,110.27512630005367,,110.24927620007657,110.27512630005367,111.26196680008434,111.26196680008434,111.2784959001001,115.67702210019343,t,4.4105445998720825,None,458358,001,2024-11-20_22h04.39.878,delay discounting exp,2024.1.5,None,2024-11-20 22h04.52.798791 +0530,
67,75,119,1,5,12,5,115.69794750004075,,115.67796590016223,115.69794750004075,116.69158930005506,116.69158930005506,116.70878370013088,124.74261030019261,t,8.03699619998224,None,458358,001,2024-11-20_22h04.39.878,delay discounting exp,2024.1.5,None,2024-11-20 22h04.52.798791 +0530,
40,55,62,1,6,13,3,124.7707486001309,,124.7444462000858,124.7707486001309,125.75729330000468,125.75729330000468,125.77349950000644,130.5252442001365,t,4.7582801000680774,None,458358,001,2024-11-20_22h04.39.878,delay discounting exp,2024.1.5,None,2024-11-20 22h04.52.798791 +0530,
27,50,21,2,0,14,2,130.54949710005894,,130.52700690017082,130.54949710005894,131.54119670018554,131.54119670018554,131.5576224999968,144.28621130017564,l,12.733289499999955,None,458358,001,2024-11-20_22h04.39.878,delay discounting exp,2024.1.5,None,2024-11-20 22h04.52.798791 +0530,
15,35,13,2,1,15,1,144.30323910014704,,144.28702450008132,144.30323910014704,145.30277200019918,145.30277200019918,145.31881050020456,155.9186475002207,l,10.605229099979624,None,458358,001,2024-11-20_22h04.39.878,delay discounting exp,2024.1.5,None,2024-11-20 22h04.52.798791 +0530,
78,80,162,2,2,16,6,155.94429940008558,,155.9204867000226,155.94429940008558,156.93580860015936,156.93580860015936,156.95308760018088,160.4176301001571,t,3.4790567001327872,None,458358,001,2024-11-20_22h04.39.878,delay discounting exp,2024.1.5,None,2024-11-20 22h04.52.798791 +0530,
49,60,89,2,3,17,4,160.44172220001929,,160.41936860000715,160.44172220001929,161.43073740019463,161.43073740019463,161.44795739999972,165.3520065001212,t,3.9108406000304967,None,458358,001,2024-11-20_22h04.39.878,delay discounting exp,2024.1.5,None,2024-11-20 22h04.52.798791 +0530,
11,30,7,2,4,18,0,165.38188230013475,,165.3544983000029,165.38188230013475,166.3684077002108,166.3684077002108,166.38521440001205,169.69015480019152,l,3.3182043000124395,None,458358,001,2024-11-20_22h04.39.878,delay discounting exp,2024.1.5,None,2024-11-20 22h04.52.798791 +0530,
40,55,62,2,5,19,3,169.72367210010998,,169.69439010019414,169.72367210010998,170.70115490001626,170.70115490001626,170.74694690015167,174.74678710009903,t,4.0394290999975055,None,458358,001,2024-11-20_22h04.39.878,delay discounting exp,2024.1.5,None,2024-11-20 22h04.52.798791 +0530,
67,75,119,2,6,20,5,174.768681100104,,174.7484403999988,174.768681100104,175.76117920014076,175.76117920014076,175.77765950001776,178.74665960017592,t,2.9837758999783546,None,458358,001,2024-11-20_22h04.39.878,delay discounting exp,2024.1.5,None,2024-11-20 22h04.52.798791 +0530,
67,75,119,3,0,21,5,178.76180750015192,,178.74816250009462,178.76180750015192,179.76731510017999,179.76731510017999,179.76731510017999,183.67887870012783,t,3.9062628999818116,None,458358,001,2024-11-20_22h04.39.878,delay discounting exp,2024.1.5,None,2024-11-20 22h04.52.798791 +0530,
27,50,21,3,1,22,2,183.7048205002211,,183.68082090001553,183.7048205002211,184.69366560014896,184.69366560014896,184.70968790003099,192.9116028000135,l,8.206558300182223,None,458358,001,2024-11-20_22h04.39.878,delay discounting exp,2024.1.5,None,2024-11-20 22h04.52.798791 +0530,
40,55,62,3,2,23,3,192.9424311001785,,192.9139668000862,192.9424311001785,193.92547400016338,193.92547400016338,193.94214020017534,199.55914060003124,t,5.630075599998236,None,458358,001,2024-11-20_22h04.39.878,delay discounting exp,2024.1.5,None,2024-11-20 22h04.52.798791 +0530,
15,35,13,3,3,24,1,199.58373970002867,,199.56090900022537,199.58373970002867,200.5736760001164,200.5736760001164,200.59000300010666,206.1069598000031,l,5.531609500059858,None,458358,001,2024-11-20_22h04.39.878,delay discounting exp,2024.1.5,None,2024-11-20 22h04.52.798791 +0530,
78,80,162,3,4,25,6,206.12839110009372,,206.1081003001891,206.12839110009372,207.12226820015348,207.12226820015348,207.13760230015032,210.48751350003295,t,3.3496602000668645,None,458358,001,2024-11-20_22h04.39.878,delay discounting exp,2024.1.5,None,2024-11-20 22h04.52.798791 +0530,
49,60,89,3,5,26,4,210.50453300005756,,210.48836670001037,210.50453300005756,211.50345800002106,211.50345800002106,211.51973120006733,214.73985950020142,t,3.2308662000577897,None,458358,001,2024-11-20_22h04.39.878,delay discounting exp,2024.1.5,None,2024-11-20 22h04.52.798791 +0530,
11,30,7,3,6,27,0,214.77019200008363,,214.74213390005752,214.77019200008363,215.7568868000526,215.7568868000526,215.775814200053,218.88732270011678,l,3.1261601999867707,None,458358,001,2024-11-20_22h04.39.878,delay discounting exp,2024.1.5,None,2024-11-20 22h04.52.798791 +0530,
40,55,62,4,0,28,3,218.91012190002948,,218.8887361001689,218.91012190002948,219.90106040006503,219.90106040006503,219.91786290006712,224.93434450007044,t,5.028574199881405,None,458358,001,2024-11-20_22h04.39.878,delay discounting exp,2024.1.5,None,2024-11-20 22h04.52.798791 +0530,
15,35,13,4,1,29,1,224.95256240013987,,224.93545180000365,224.95256240013987,225.95209730020724,225.95209730020724,225.96873930003494,230.5174304000102,l,4.554254400078207,None,458358,001,2024-11-20_22h04.39.878,delay discounting exp,2024.1.5,None,2024-11-20 22h04.52.798791 +0530,
78,80,162,4,2,30,6,230.54245200008154,,230.51914720004424,230.54245200008154,231.53280100016855,231.53280100016855,231.5483775001485,234.65047640004195,t,3.10892860009335,None,458358,001,2024-11-20_22h04.39.878,delay discounting exp,2024.1.5,None,2024-11-20 22h04.52.798791 +0530,
11,30,7,4,3,31,0,234.6799359000288,,234.6523122000508,234.6799359000288,235.66515400004573,235.66515400004573,235.68098490010016,238.40950030018575,l,2.739345599897206,None,458358,001,2024-11-20_22h04.39.878,delay discounting exp,2024.1.5,None,2024-11-20 22h04.52.798791 +0530,
67,75,119,4,4,32,5,238.44688260019757,,238.41253600013442,238.44688260019757,239.4181424002163,239.4181424002163,239.46416339999996,245.31489380006678,t,5.893006399972364,None,458358,001,2024-11-20_22h04.39.878,delay discounting exp,2024.1.5,None,2024-11-20 22h04.52.798791 +0530,
49,60,89,4,5,33,4,245.3420608001761,,245.31692390004173,245.3420608001761,246.33049610001035,246.33049610001035,246.34713430004194,250.4194500001613,t,4.085248699877411,None,458358,001,2024-11-20_22h04.39.878,delay discounting exp,2024.1.5,None,2024-11-20 22h04.52.798791 +0530,
27,50,21,4,6,34,2,250.4537951000966,,250.42480320017785,250.4537951000966,251.42769570020027,251.42769570020027,251.46078910003416,258.76275540003553,t,7.328062900109217,None,458358,001,2024-11-20_22h04.39.878,delay discounting exp,2024.1.5,None,2024-11-20 22h04.52.798791 +0530,
11,30,7,5,0,35,0,258.7920198000502,,258.7649881001562,258.7920198000502,259.7751211000141,259.7751211000141,259.79157520015724,262.9098932000343,l,3.121526899980381,None,458358,001,2024-11-20_22h04.39.878,delay discounting exp,2024.1.5,None,2024-11-20 22h04.52.798791 +0530,
49,60,89,5,1,36,4,262.93415040010586,,262.9116359001491,262.93415040010586,263.9246416001115,263.9246416001115,263.94066110020503,267.7733201000374,t,3.8281306999269873,None,458358,001,2024-11-20_22h04.39.878,delay discounting exp,2024.1.5,None,2024-11-20 22h04.52.798791 +0530,
40,55,62,5,2,37,3,267.81090490007773,,267.77634290000424,267.81090490007773,268.79193500010297,268.79193500010297,268.83797360002063,273.22318890015595,t,4.413491800194606,None,458358,001,2024-11-20_22h04.39.878,delay discounting exp,2024.1.5,None,2024-11-20 22h04.52.798791 +0530,
67,75,119,5,3,38,5,273.24361940007657,,273.2248268001713,273.24361940007657,274.2392127001658,274.2392127001658,274.2557247001678,277.13813080010004,t,2.892873600125313,None,458358,001,2024-11-20_22h04.39.878,delay discounting exp,2024.1.5,None,2024-11-20 22h04.52.798791 +0530,
15,35,13,5,4,39,1,277.15549550019205,,277.1389676001854,277.15549550019205,278.15334230009466,278.15334230009466,278.1701683001593,281.13814240018837,l,2.9787042001262307,None,458358,001,2024-11-20_22h04.39.878,delay discounting exp,2024.1.5,None,2024-11-20 22h04.52.798791 +0530,
27,50,21,5,5,40,2,281.1545435001608,,281.1389221001882,281.1545435001608,282.15274360007606,282.15274360007606,282.1689427001402,288.7204468001146,t,6.553008199902251,None,458358,001,2024-11-20_22h04.39.878,delay discounting exp,2024.1.5,None,2024-11-20 22h04.52.798791 +0530,
78,80,162,5,6,41,6,288.7438188001979,,288.7221890001092,288.7438188001979,289.73852080013603,289.73852080013603,289.75529080000706,292.90487630013376,t,3.1545059999916703,None,458358,001,2024-11-20_22h04.39.878,delay discounting exp,2024.1.5,None,2024-11-20 22h04.52.798791 +0530,
49,60,89,6,0,42,4,292.93523040018044,,292.9070557001978,292.93523040018044,293.9184807999991,293.9184807999991,293.9356763001997,296.96710650017485,t,3.0391001999378204,None,458358,001,2024-11-20_22h04.39.878,delay discounting exp,2024.1.5,None,2024-11-20 22h04.52.798791 +0530,
78,80,162,6,1,43,6,296.9942214000039,,296.9681374002248,296.9942214000039,297.982955200132,297.982955200132,297.9989903001115,300.95135210012086,t,2.966503799892962,None,458358,001,2024-11-20_22h04.39.878,delay discounting exp,2024.1.5,None,2024-11-20 22h04.52.798791 +0530,
11,30,7,6,2,44,0,300.9705882000271,,300.9532727000769,300.9705882000271,301.96468330011703,301.96468330011703,301.9809474002104,304.5483087000903,l,2.5702933000866324,None,458358,001,2024-11-20_22h04.39.878,delay discounting exp,2024.1.5,None,2024-11-20 22h04.52.798791 +0530,
67,75,119,6,3,45,5,304.5656353000086,,304.54955009999685,304.5656353000086,305.56349960016087,305.56349960016087,305.58016470004804,311.4475518001709,t,5.870845399796963,None,458358,001,2024-11-20_22h04.39.878,delay discounting exp,2024.1.5,None,2024-11-20 22h04.52.798791 +0530,
40,55,62,6,4,46,3,311.4681689001154,,311.4488706002012,311.4681689001154,312.4640256999992,312.4640256999992,312.480398000218,316.42956300009973,t,3.9602030001115054,None,458358,001,2024-11-20_22h04.39.878,delay discounting exp,2024.1.5,None,2024-11-20 22h04.52.798791 +0530,
15,35,13,6,5,47,1,316.44817700004205,,316.43069670000114,316.44817700004205,317.4522886001505,317.4522886001505,317.4702509001363,323.4623957001604,l,6.007396799977869,None,458358,001,2024-11-20_22h04.39.878,delay discounting exp,2024.1.5,None,2024-11-20 22h04.52.798791 +0530,
27,50,21,6,6,48,2,323.4875004000496,,323.46412490005605,323.4875004000496,324.4787366001401,324.4787366001401,324.49558129999787,329.7116685002111,t,5.225038200151175,None,458358,001,2024-11-20_22h04.39.878,delay discounting exp,2024.1.5,None,2024-11-20 22h04.52.798791 +0530,
67,75,119,7,0,49,5,329.74143960000947,,329.71372850006446,329.74143960000947,330.7251224000938,330.7251224000938,330.7416877001524,334.377298100153,t,3.6347473000641912,None,458358,001,2024-11-20_22h04.39.878,delay discounting exp,2024.1.5,None,2024-11-20 22h04.52.798791 +0530,
40,55,62,7,1,50,3,334.40354190021753,,334.37928720004857,334.40354190021753,335.389855600195,335.389855600195,335.4066709000617,339.9095863001421,t,4.514803000027314,None,458358,001,2024-11-20_22h04.39.878,delay discounting exp,2024.1.5,None,2024-11-20 22h04.52.798791 +0530,
27,50,21,7,2,51,2,339.935949300183,,339.9115276001394,339.935949300183,340.9248993000947,340.9248993000947,340.94097980018705,347.68979690014385,l,6.757887999992818,None,458358,001,2024-11-20_22h04.39.878,delay discounting exp,2024.1.5,None,2024-11-20 22h04.52.798791 +0530,
11,30,7,7,3,52,0,347.7150040001143,,347.69157400005497,347.7150040001143,348.7044484000653,348.7044484000653,348.72188200009987,351.3404859001748,l,2.6234733001329005,None,458358,001,2024-11-20_22h04.39.878,delay discounting exp,2024.1.5,None,2024-11-20 22h04.52.798791 +0530,
49,60,89,7,4,53,4,351.38192140008323,,351.3425511000678,351.38192140008323,352.3560328001622,352.3560328001622,352.40093300002627,355.3714563001413,t,3.0051810999866575,None,458358,001,2024-11-20_22h04.39.878,delay discounting exp,2024.1.5,None,2024-11-20 22h04.52.798791 +0530,
78,80,162,7,5,54,6,355.39895200007595,,355.3732663001865,355.39895200007595,356.3854797000531,356.3854797000531,356.4022387000732,359.4856066000648,t,3.086945899995044,None,458358,001,2024-11-20_22h04.39.878,delay discounting exp,2024.1.5,None,2024-11-20 22h04.52.798791 +0530,
15,35,13,7,6,55,1,359.504705700092,,359.4869278999977,359.504705700092,360.50052510015666,360.50052510015666,360.51714230002835,363.7679522000253,l,3.250590499956161,None,458358,001,2024-11-20_22h04.39.878,delay discounting exp,2024.1.5,None,2024-11-20 22h04.52.798791 +0530,
15,35,13,8,0,56,1,363.78269440005533,,363.76891510002315,363.78269440005533,364.784171000123,364.784171000123,364.784171000123,370.20198940020055,l,5.406856699846685,None,458358,001,2024-11-20_22h04.39.878,delay discounting exp,2024.1.5,None,2024-11-20 22h04.52.798791 +0530,
11,30,7,8,1,57,0,370.2290137000382,,370.20402660011314,370.2290137000382,371.21696160011925,371.21696160011925,371.23456380004063,373.918096100213,l,2.689008500194177,None,458358,001,2024-11-20_22h04.39.878,delay discounting exp,2024.1.5,None,2024-11-20 22h04.52.798791 +0530,
49,60,89,8,2,58,4,373.95103260013275,,373.9207890999969,373.95103260013275,374.9364137002267,374.9364137002267,374.9548604001757,378.0826406001579,t,3.1299565001390874,None,458358,001,2024-11-20_22h04.39.878,delay discounting exp,2024.1.5,None,2024-11-20 22h04.52.798791 +0530,
78,80,162,8,3,59,6,378.1082586001139,,378.08445670013316,378.1082586001139,379.0988537000958,379.0988537000958,379.1144973000046,381.2818511000369,t,2.175749400164932,None,458358,001,2024-11-20_22h04.39.878,delay discounting exp,2024.1.5,None,2024-11-20 22h04.52.798791 +0530,
27,50,21,8,4,60,2,381.3059312000405,,381.28343480010517,381.3059312000405,382.2959902000148,382.2959902000148,382.31248590000905,388.070204900112,t,5.7552017997950315,None,458358,001,2024-11-20_22h04.39.878,delay discounting exp,2024.1.5,None,2024-11-20 22h04.52.798791 +0530,
67,75,119,8,5,61,5,388.1133980001323,,388.0759945001919,388.1133980001323,389.0860713000875,389.0860713000875,389.1276567000896,392.8604598999955,t,3.7453669998794794,None,458358,001,2024-11-20_22h04.39.878,delay discounting exp,2024.1.5,None,2024-11-20 22h04.52.798791 +0530,
40,55,62,8,6,62,3,392.8894271000754,,392.8624748000875,392.8894271000754,393.8758745000232,393.8758745000232,393.89281120011583,396.0800668001175,t,2.1955704998690635,None,458358,001,2024-11-20_22h04.39.878,delay discounting exp,2024.1.5,None,2024-11-20 22h04.52.798791 +0530,
40,55,62,9,0,63,3,396.0990710000042,,396.0827761001419,396.0990710000042,397.0971950001549,397.0971950001549,397.1235561000649,401.0119175000582,t,3.905001699924469,None,458358,001,2024-11-20_22h04.39.878,delay discounting exp,2024.1.5,None,2024-11-20 22h04.52.798791 +0530,
15,35,13,9,1,64,1,401.03823140007444,,401.0138528000098,401.03823140007444,402.02378180017695,402.02378180017695,402.0407371001784,405.34227670007385,l,3.3066990999504924,None,458358,001,2024-11-20_22h04.39.878,delay discounting exp,2024.1.5,None,2024-11-20 22h04.52.798791 +0530,
67,75,119,9,2,65,5,405.36645240010694,,405.34388210019097,405.36645240010694,406.3563187001273,406.3563187001273,406.3734992002137,409.20794470002875,t,2.8481253997888416,None,458358,001,2024-11-20_22h04.39.878,delay discounting exp,2024.1.5,None,2024-11-20 22h04.52.798791 +0530,
49,60,89,9,3,66,4,409.22714140010066,,409.2092364002019,409.22714140010066,410.22378060012124,410.22378060012124,410.24010769999586,412.8066552001983,t,2.5695636000018567,None,458358,001,2024-11-20_22h04.39.878,delay discounting exp,2024.1.5,None,2024-11-20 22h04.52.798791 +0530,
27,50,21,9,4,67,2,412.8257207002025,,412.8082994001452,412.8257207002025,413.8220188000705,413.8220188000705,413.83854790008627,417.13934630015865,t,3.315209300024435,None,458358,001,2024-11-20_22h04.39.878,delay discounting exp,2024.1.5,None,2024-11-20 22h04.52.798791 +0530,
11,30,7,9,5,68,0,417.16070930007845,,417.1406944000628,417.16070930007845,418.1551171001047,418.1551171001047,418.1725868000649,420.82344280020334,l,2.6626555998809636,None,458358,001,2024-11-20_22h04.39.878,delay discounting exp,2024.1.5,None,2024-11-20 22h04.52.798791 +0530,
78,80,162,9,6,69,6,420.8517739002127,,420.82586720003746,420.8517739002127,421.83838700014167,421.83838700014167,421.8548176002223,424.38849590020254,t,2.5428783998358995,None,458358,001,2024-11-20_22h04.39.878,delay discounting exp,2024.1.5,None,2024-11-20 22h04.52.798791 +0530,
11,30,7,10,0,70,0,424.41520060016774,,424.39023160003126,424.41520060016774,425.40719710011035,425.40719710011035,425.42666580015793,429.03921330021694,l,3.6201585999224335,None,458358,001,2024-11-20_22h04.39.878,delay discounting exp,2024.1.5,None,2024-11-20 22h04.52.798791 +0530,
78,80,162,10,1,71,6,429.07222390011884,,429.0415279001463,429.07222390011884,430.05299560003914,430.05299560003914,430.0995880002156,432.60175420017913,t,2.538381499936804,None,458358,001,2024-11-20_22h04.39.878,delay discounting exp,2024.1.5,None,2024-11-20 22h04.52.798791 +0530,
40,55,62,10,2,72,3,432.62169520021416,,432.6029115000274,432.62169520021416,433.608349500224,433.608349500224,433.6278179001529,436.2194181000814,t,2.6083358000032604,None,458358,001,2024-11-20_22h04.39.878,delay discounting exp,2024.1.5,None,2024-11-20 22h04.52.798791 +0530,
27,50,21,10,3,73,2,436.2449935001787,,436.2212224001996,436.2449935001787,437.23357600020245,437.23357600020245,437.24961749999784,440.11664460017346,t,2.868921099929139,None,458358,001,2024-11-20_22h04.39.878,delay discounting exp,2024.1.5,None,2024-11-20 22h04.52.798791 +0530,
67,75,119,10,4,74,5,440.1327844001353,,440.1174595002085,440.1327844001353,441.13136850018054,441.13136850018054,441.14870470017195,443.066761800088,t,1.926530099939555,None,458358,001,2024-11-20_22h04.39.878,delay discounting exp,2024.1.5,None,2024-11-20 22h04.52.798791 +0530,
49,60,89,10,5,75,4,443.091837100219,,443.06839680019766,443.091837100219,444.0856785001233,444.0856785001233,444.1038254001178,446.78537840000354,t,2.6960388000588864,None,458358,001,2024-11-20_22h04.39.878,delay discounting exp,2024.1.5,None,2024-11-20 22h04.52.798791 +0530,
15,35,13,10,6,76,1,446.81678490014747,,446.78764410014264,446.81678490014747,447.8012869001832,447.8012869001832,447.81811300013214,451.34824090008624,t,3.537775499979034,None,458358,001,2024-11-20_22h04.39.878,delay discounting exp,2024.1.5,None,2024-11-20 22h04.52.798791 +0530,
40,55,62,11,0,77,3,451.3705331000965,,451.34967580018565,451.3705331000965,452.3642187002115,452.3642187002115,452.38087610015646,455.1631228001788,t,2.781663400121033,None,458358,001,2024-11-20_22h04.39.878,delay discounting exp,2024.1.5,None,2024-11-20 22h04.52.798791 +0530,
27,50,21,11,1,78,2,455.18177770008333,,455.16433670022525,455.18177770008333,456.18228530022316,456.18228530022316,456.2001236001961,459.7634323001839,t,3.565834099892527,None,458358,001,2024-11-20_22h04.39.878,delay discounting exp,2024.1.5,None,2024-11-20 22h04.52.798791 +0530,
78,80,162,11,2,79,6,459.79897600016557,,459.76606430020183,459.79897600016557,460.7774882002268,460.7774882002268,460.8104328000918,462.8644222000148,t,2.074062000028789,None,458358,001,2024-11-20_22h04.39.878,delay discounting exp,2024.1.5,None,2024-11-20 22h04.52.798791 +0530,
49,60,89,11,3,80,4,462.8955541001633,,462.86663610022515,462.8955541001633,463.8821962000802,463.8821962000802,463.90021950006485,467.43238200014457,t,3.5402393999975175,None,458358,001,2024-11-20_22h04.39.878,delay discounting exp,2024.1.5,None,2024-11-20 22h04.52.798791 +0530,
67,75,119,11,4,81,5,467.4650443000719,,467.435242400039,467.4650443000719,468.44828340015374,468.44828340015374,468.4664745000191,470.6770930001512,t,2.2272201001178473,None,458358,001,2024-11-20_22h04.39.878,delay discounting exp,2024.1.5,None,2024-11-20 22h04.52.798791 +0530,
15,35,13,11,5,82,1,470.69997560000047,,470.67804740020074,470.69997560000047,471.6909057002049,471.6909057002049,471.7075282000005,475.36020800005645,t,3.656471700174734,None,458358,001,2024-11-20_22h04.39.878,delay discounting exp,2024.1.5,None,2024-11-20 22h04.52.798791 +0530,
11,30,7,11,6,83,0,475.3883694000542,,475.3622497001197,475.3883694000542,476.37320300005376,476.37320300005376,476.3899003001861,479.5402927000541,l,3.1531229000538588,None,458358,001,2024-11-20_22h04.39.878,delay discounting exp,2024.1.5,None,2024-11-20 22h04.52.798791 +0530,
27,50,21,12,0,84,2,479.55852280021645,,479.54132940014824,479.55852280021645,480.55836700019427,480.55836700019427,480.57406810019165,483.87540660006925,t,3.3101836999412626,None,458358,001,2024-11-20_22h04.39.878,delay discounting exp,2024.1.5,None,2024-11-20 22h04.52.798791 +0530,
49,60,89,12,1,85,4,483.9035424001049,,483.8773829001002,483.9035424001049,484.89014890021645,484.89014890021645,484.90711580007337,487.08908460009843,t,2.1867428000550717,None,458358,001,2024-11-20_22h04.39.878,delay discounting exp,2024.1.5,None,2024-11-20 22h04.52.798791 +0530,
40,55,62,12,2,86,3,487.10969850001857,,487.09044650010765,487.10969850001857,488.1036709002219,488.1036709002219,488.1199321001768,490.7558967000805,t,2.6446056999266148,None,458358,001,2024-11-20_22h04.39.878,delay discounting exp,2024.1.5,None,2024-11-20 22h04.52.798791 +0530,
15,35,13,12,3,87,1,490.780263800174,,490.7575466001872,490.780263800174,491.7726580000017,491.7726580000017,491.800957800122,495.3880241001025,t,3.6132979998365045,None,458358,001,2024-11-20_22h04.39.878,delay discounting exp,2024.1.5,None,2024-11-20 22h04.52.798791 +0530,
67,75,119,12,4,88,5,495.4104785001837,,495.3896122002043,495.4104785001837,496.4018522000406,496.4018522000406,496.41874330001883,500.5033081001602,t,4.089049100177363,None,458358,001,2024-11-20_22h04.39.878,delay discounting exp,2024.1.5,None,2024-11-20 22h04.52.798791 +0530,
78,80,162,12,5,89,6,500.5254144000355,,500.50521350000054,500.5254144000355,501.5170806001406,501.5170806001406,501.5336003000848,504.05296350014396,t,2.528667900012806,None,458358,001,2024-11-20_22h04.39.878,delay discounting exp,2024.1.5,None,2024-11-20 22h04.52.798791 +0530,
11,30,7,12,6,90,0,504.079429600155,,504.05500850011595,504.079429600155,505.06760120019317,505.06760120019317,505.08389560016803,508.700065900106,t,3.6193202000577003,None,458358,001,2024-11-20_22h04.39.878,delay discounting exp,2024.1.5,None,2024-11-20 22h04.52.798791 +0530,
11,30,7,13,0,91,0,508.71526850014925,,508.70121630001813,508.71526850014925,509.7044087999966,509.7044087999966,509.7226831000298,513.3005339000374,l,3.5923613999038935,None,458358,001,2024-11-20_22h04.39.878,delay discounting exp,2024.1.5,None,2024-11-20 22h04.52.798791 +0530,
15,35,13,13,1,92,1,513.3269675001502,,513.3020790000446,513.3269675001502,514.3209897000343,514.3209897000343,514.3411685000174,518.1658353002276,l,3.8276767001952976,None,458358,001,2024-11-20_22h04.39.878,delay discounting exp,2024.1.5,None,2024-11-20 22h04.52.798791 +0530,
78,80,162,13,2,93,6,518.1972240000032,,518.1680821001064,518.1972240000032,519.1844400002155,519.1844400002155,519.2014348001685,521.6012704002205,t,2.409682599827647,None,458358,001,2024-11-20_22h04.39.878,delay discounting exp,2024.1.5,None,2024-11-20 22h04.52.798791 +0530,
49,60,89,13,3,94,4,521.6315584001131,,521.603504100116,521.6315584001131,522.6152836000547,522.6152836000547,522.6322483001277,525.130470200209,t,2.4988073999993503,None,458358,001,2024-11-20_22h04.39.878,delay discounting exp,2024.1.5,None,2024-11-20 22h04.52.798791 +0530,
67,75,119,13,4,95,5,525.151832500007,,525.1318389000371,525.151832500007,526.1472201000433,526.1472201000433,526.1643757000566,528.7680705999956,t,2.597935900092125,None,458358,001,2024-11-20_22h04.39.878,delay discounting exp,2024.1.5,None,2024-11-20 22h04.52.798791 +0530,
27,50,21,13,5,96,2,528.8104623002,,528.7713611000217,528.8104623002,529.779373700032,529.779373700032,529.8125210001599,532.5800829001237,t,2.792684300104156,None,458358,001,2024-11-20_22h04.39.878,delay discounting exp,2024.1.5,None,2024-11-20 22h04.52.798791 +0530,
40,55,62,13,6,97,3,532.6080652000383,,532.5822337002028,532.6080652000383,533.5955112001393,533.5955112001393,533.6116274001542,535.8644801001064,t,2.260396199999377,None,458358,001,2024-11-20_22h04.39.878,delay discounting exp,2024.1.5,None,2024-11-20 22h04.52.798791 +0530,
