trials.thisRepN,trials.thisTrialN,trials.thisN,trials.thisIndex,thisRow.t,notes,trial.started,num_distr,fixation.started,target.started,mouse.started,trial.stopped,mouse.x,mouse.y,mouse.leftButton,mouse.midButton,mouse.rightButton,mouse.time,mouse.clicked_name,participant,session,date,expName,psychopyVersion,frameRate,expStart,
0,0,0,0,0.13713320018723607,,0.02968379994854331,10,0.13713320018723607,0.13713320018723607,0.09157799975946546,9.356452899985015,[0.29],[0.47875],[1],[0],[0],[9.26314300019294],['target'],536989,001,2024-10-10_09h18.10.233,untitled,2024.1.5,None,2024-10-10 09h18.16.837520 +0530,
1,0,1,0,9.467743800021708,,9.370990400202572,10,9.467743800021708,9.467743800021708,0.06652719993144274,10.771976999938488,[-0.01625],[-0.23],[1],[0],[0],[1.335463299881667],[],536989,001,2024-10-10_09h18.10.233,untitled,2024.1.5,None,2024-10-10 09h18.16.837520 +0530,
2,0,2,0,10.884353199973702,,10.785773700103164,5,10.884353199973702,10.884353199973702,0.0604908000677824,13.57123599993065,[0.4475],[0.27],[1],[0],[0],[2.7266299999319017],['target'],536989,001,2024-10-10_09h18.10.233,untitled,2024.1.5,None,2024-10-10 09h18.16.837520 +0530,
3,0,3,0,13.700030100066215,,13.586163700092584,10,13.700030100066215,13.700030100066215,0.08845120016485453,15.288905799854547,[0.46875],[0.07125],[1],[0],[0],[1.6168357003480196],['target'],536989,001,2024-10-10_09h18.10.233,untitled,2024.1.5,None,2024-10-10 09h18.16.837520 +0530,
4,0,4,0,15.432983200065792,,15.314912099856883,10,15.432983200065792,15.432983200065792,0.08737159986048937,21.536350899841636,[0.41],[-0.2425],[1],[0],[0],[6.139091900084168],['target'],536989,001,2024-10-10_09h18.10.233,untitled,2024.1.5,None,2024-10-10 09h18.16.837520 +0530,
5,0,5,0,21.681481400039047,,21.552593300119042,10,21.681481400039047,21.681481400039047,0.09554680017754436,24.655540800187737,[0.195],[-0.26625],[1],[0],[0],[3.010156699921936],['target'],536989,001,2024-10-10_09h18.10.233,untitled,2024.1.5,None,2024-10-10 09h18.16.837520 +0530,
6,0,6,0,24.74754159990698,,24.670936999842525,5,24.74754159990698,24.74754159990698,0.05036790017038584,28.232059500180185,[-0.3],[-0.44875],[1],[0],[0],[3.513285900000483],['target'],536989,001,2024-10-10_09h18.10.233,untitled,2024.1.5,None,2024-10-10 09h18.16.837520 +0530,
7,0,7,0,28.379502899944782,,28.248414900153875,10,28.379502899944782,28.379502899944782,0.08980940002948046,30.616108300164342,[-0.01375],[0.3775],[1],[0],[0],[2.280252499971539],['target'],536989,001,2024-10-10_09h18.10.233,untitled,2024.1.5,None,2024-10-10 09h18.16.837520 +0530,
8,0,8,0,30.729151399806142,,30.626250700093806,10,30.729151399806142,30.729151399806142,0.06563720013946295,34.74865549989045,[-0.33625],[-0.44125],[1],[0],[0],[4.05788219999522],['target'],536989,001,2024-10-10_09h18.10.233,untitled,2024.1.5,None,2024-10-10 09h18.16.837520 +0530,
9,0,9,0,34.92900160001591,,34.763935800176114,10,34.92900160001591,34.92900160001591,0.12375319981947541,37.1141380998306,[0.0975],[-0.23375],[1],[0],[0],[2.228667000308633],['target'],536989,001,2024-10-10_09h18.10.233,untitled,2024.1.5,None,2024-10-10 09h18.16.837520 +0530,
10,0,10,0,37.19408140005544,,37.12535570003092,5,37.19408140005544,37.19408140005544,0.03993579978123307,40.26754639996216,[-0.16625],[-0.2825],[1],[0],[0],[3.103958399966359],['target'],536989,001,2024-10-10_09h18.10.233,untitled,2024.1.5,None,2024-10-10 09h18.16.837520 +0530,
11,0,11,0,40.4266431001015,,40.29049549996853,10,40.4266431001015,40.4266431001015,0.10974769992753863,43.66118919989094,[0.285],[0.02],[1],[0],[0],[3.2661802996881306],['target'],536989,001,2024-10-10_09h18.10.233,untitled,2024.1.5,None,2024-10-10 09h18.16.837520 +0530,
12,0,12,0,43.75984730012715,,43.66780580021441,10,43.75984730012715,43.75984730012715,0.05827380018308759,47.91133120004088,[-0.08625],[-0.24],[1],[0],[0],[4.186376200057566],['target'],536989,001,2024-10-10_09h18.10.233,untitled,2024.1.5,None,2024-10-10 09h18.16.837520 +0530,
13,0,13,0,47.99233070015907,,47.9189003999345,5,47.99233070015907,47.99233070015907,0.04374640015885234,52.47573760012165,[-0.345],[-0.04125],[1],[0],[0],[4.514180600177497],['target'],536989,001,2024-10-10_09h18.10.233,untitled,2024.1.5,None,2024-10-10 09h18.16.837520 +0530,
14,0,14,0,52.541056599933654,,52.48316380009055,5,52.541056599933654,52.541056599933654,0.0354547998867929,54.709877599962056,[0.425],[0.1775],[1],[0],[0],[2.1923812003806233],['target'],536989,001,2024-10-10_09h18.10.233,untitled,2024.1.5,None,2024-10-10 09h18.16.837520 +0530,
15,0,15,0,54.80726880021393,,54.72514310013503,5,54.80726880021393,54.80726880021393,0.05246260017156601,58.20842179981992,[-0.13125],[-0.19],[1],[0],[0],[3.4337861998938024],['target'],536989,001,2024-10-10_09h18.10.233,untitled,2024.1.5,None,2024-10-10 09h18.16.837520 +0530,
16,0,16,0,58.28924660012126,,58.22148730000481,5,58.28924660012126,58.28924660012126,0.0430723000317812,59.840629199985415,[0.1875],[0.01625],[1],[0],[0],[1.5788401002064347],['target'],536989,001,2024-10-10_09h18.10.233,untitled,2024.1.5,None,2024-10-10 09h18.16.837520 +0530,
17,0,17,0,59.972325399983674,,59.854353399947286,10,59.972325399983674,59.972325399983674,0.07898769993335009,62.62383269984275,[0.14],[0.05625],[1],[0],[0],[2.6937278998084366],['target'],536989,001,2024-10-10_09h18.10.233,untitled,2024.1.5,None,2024-10-10 09h18.16.837520 +0530,
18,0,18,0,62.68839639984071,,62.63197539979592,5,62.68839639984071,62.68839639984071,0.033708800096064806,65.98907169979066,[-0.02875],[0.1175],[1],[0],[0],[3.325174799654633],['target'],536989,001,2024-10-10_09h18.10.233,untitled,2024.1.5,None,2024-10-10 09h18.16.837520 +0530,
19,0,19,0,66.12092849984765,,65.99704190017655,10,66.12092849984765,66.12092849984765,0.08001769986003637,68.97215110016987,[0.0675],[0.175],[1],[0],[0],[2.8962369998916984],['target'],536989,001,2024-10-10_09h18.10.233,untitled,2024.1.5,None,2024-10-10 09h18.16.837520 +0530,
20,0,20,0,69.08662430010736,,68.9827526002191,10,69.08662430010736,69.08662430010736,0.07468360010534525,72.00530759990215,[-0.09125],[0.37375],[1],[0],[0],[2.948738900013268],['target'],536989,001,2024-10-10_09h18.10.233,untitled,2024.1.5,None,2024-10-10 09h18.16.837520 +0530,
21,0,21,0,72.11986180022359,,72.01311760023236,10,72.11986180022359,72.11986180022359,0.07268709968775511,74.30517170019448,[0.17125],[0.23125],[1],[0],[0],[2.2204681001603603],[],536989,001,2024-10-10_09h18.10.233,untitled,2024.1.5,None,2024-10-10 09h18.16.837520 +0530,
22,0,22,0,74.36866920022294,,74.31311299977824,5,74.36866920022294,74.36866920022294,0.036861199885606766,77.16917630005628,[0.4075],[0.1],[1],[0],[0],[2.820332400035113],['target'],536989,001,2024-10-10_09h18.10.233,untitled,2024.1.5,None,2024-10-10 09h18.16.837520 +0530,
23,0,23,0,77.23460800014436,,77.1745434999466,5,77.23460800014436,77.23460800014436,0.03779740026220679,79.31991530023515,[0.31375],[0.0],[1],[0],[0],[2.1081321998499334],['target'],536989,001,2024-10-10_09h18.10.233,untitled,2024.1.5,None,2024-10-10 09h18.16.837520 +0530,
24,0,24,0,79.45088810008019,,79.3269060999155,10,79.45088810008019,79.45088810008019,0.0752204000018537,82.8683997001499,[0.30125],[-0.46],[1],[0],[0],[3.467033099848777],['target'],536989,001,2024-10-10_09h18.10.233,untitled,2024.1.5,None,2024-10-10 09h18.16.837520 +0530,
25,0,25,0,82.98351019993424,,82.87735049985349,10,82.98351019993424,82.98351019993424,0.07352849980816245,85.40089779999107,[0.02125],[-0.0475],[1],[0],[0],[2.4521392001770437],['target'],536989,001,2024-10-10_09h18.10.233,untitled,2024.1.5,None,2024-10-10 09h18.16.837520 +0530,
26,0,26,0,85.48389100003988,,85.40682339994237,5,85.48389100003988,85.48389100003988,0.04500810010358691,88.51980530004948,[0.17625],[0.02],[1],[0],[0],[3.0682299002073705],['target'],536989,001,2024-10-10_09h18.10.233,untitled,2024.1.5,None,2024-10-10 09h18.16.837520 +0530,
27,0,27,0,88.66523220017552,,88.53491669986397,10,88.66523220017552,88.66523220017552,0.09711299976333976,91.81832619989291,[-0.405],[0.215],[1],[0],[0],[3.1884861001744866],['target'],536989,001,2024-10-10_09h18.10.233,untitled,2024.1.5,None,2024-10-10 09h18.16.837520 +0530,
28,0,28,0,91.8983322000131,,91.82673450000584,5,91.8983322000131,91.8983322000131,0.039976300206035376,95.45145870000124,[0.38],[-0.3875],[1],[0],[0],[3.5855990001000464],['target'],536989,001,2024-10-10_09h18.10.233,untitled,2024.1.5,None,2024-10-10 09h18.16.837520 +0530,
29,0,29,0,95.53085849992931,,95.46313050016761,5,95.53085849992931,95.53085849992931,0.047586200293153524,97.75071350019425,[0.13125],[-0.39375],[1],[0],[0],[2.2425107997842133],['target'],536989,001,2024-10-10_09h18.10.233,untitled,2024.1.5,None,2024-10-10 09h18.16.837520 +0530,
30,0,30,0,97.84778050007299,,97.76505960011855,5,97.84778050007299,97.84778050007299,0.05421230010688305,101.33213200001046,[-0.24375],[-0.03625],[1],[0],[0],[3.514647000003606],['target'],536989,001,2024-10-10_09h18.10.233,untitled,2024.1.5,None,2024-10-10 09h18.16.837520 +0530,
31,0,31,0,101.41245440021157,,101.34554160013795,5,101.41245440021157,101.41245440021157,0.047614799812436104,103.98080789996311,[0.01875],[-0.24875],[1],[0],[0],[2.5913466000929475],['target'],536989,001,2024-10-10_09h18.10.233,untitled,2024.1.5,None,2024-10-10 09h18.16.837520 +0530,
32,0,32,0,104.04487519990653,,103.98621039977297,5,104.04487519990653,104.04487519990653,0.027803899720311165,106.54881899990141,[-0.32125],[-0.13625],[1],[0],[0],[2.534932699985802],['target'],536989,001,2024-10-10_09h18.10.233,untitled,2024.1.5,None,2024-10-10 09h18.16.837520 +0530,
33,0,33,0,106.67755150003359,,106.56197739997879,10,106.67755150003359,106.67755150003359,0.08625670010223985,109.82933680014685,[0.47375],[-0.43],[1],[0],[0],[3.1840306003578007],['target'],536989,001,2024-10-10_09h18.10.233,untitled,2024.1.5,None,2024-10-10 09h18.16.837520 +0530,
34,0,34,0,109.89386310009286,,109.83773919986561,5,109.89386310009286,109.89386310009286,0.03708640020340681,112.38196399994195,[0.46875],[0.09],[1],[0],[0],[2.5077188997529447],['target'],536989,001,2024-10-10_09h18.10.233,untitled,2024.1.5,None,2024-10-10 09h18.16.837520 +0530,
35,0,35,0,112.49349220003933,,112.39647840010002,5,112.49349220003933,112.49349220003933,0.061796000227332115,114.49654150009155,[0.2025],[0.33],[1],[0],[0],[2.0408820998854935],['target'],536989,001,2024-10-10_09h18.10.233,untitled,2024.1.5,None,2024-10-10 09h18.16.837520 +0530,
36,0,36,0,114.62578490003943,,114.51026119990274,10,114.62578490003943,114.62578490003943,0.07716530002653599,116.59438590006903,[0.35625],[-0.22125],[1],[0],[0],[2.0085038002580404],['target'],536989,001,2024-10-10_09h18.10.233,untitled,2024.1.5,None,2024-10-10 09h18.16.837520 +0530,
37,0,37,0,116.67609729990363,,116.60518300021067,5,116.67609729990363,116.67609729990363,0.04215910006314516,118.6762954001315,[-0.10125],[0.2625],[1],[0],[0],[2.030706400051713],['target'],536989,001,2024-10-10_09h18.10.233,untitled,2024.1.5,None,2024-10-10 09h18.16.837520 +0530,
38,0,38,0,118.741239100229,,118.68240180006251,5,118.741239100229,118.741239100229,0.03134070010855794,120.87916400004178,[-0.35],[-0.42875],[1],[0],[0],[2.1659817001782358],['target'],536989,001,2024-10-10_09h18.10.233,untitled,2024.1.5,None,2024-10-10 09h18.16.837520 +0530,
39,0,39,0,120.99079209985211,,120.8926269998774,10,120.99079209985211,120.99079209985211,0.06984720006585121,126.42518420005217,[0.03875],[0.02875],[1],[0],[0],[5.464486599899828],['target'],536989,001,2024-10-10_09h18.10.233,untitled,2024.1.5,None,2024-10-10 09h18.16.837520 +0530,
40,0,40,0,126.53949909983203,,126.4330008001998,10,126.53949909983203,126.53949909983203,0.0752087002620101,128.90773729979992,[-0.15875],[0.23],[1],[0],[0],[2.4005070999264717],['target'],536989,001,2024-10-10_09h18.10.233,untitled,2024.1.5,None,2024-10-10 09h18.16.837520 +0530,
41,0,41,0,128.97313190018758,,128.9161147000268,5,128.97313190018758,128.97313190018758,0.03716549975797534,131.99366779997945,[-0.02625],[-0.41875],[1],[0],[0],[3.0410588001832366],['target'],536989,001,2024-10-10_09h18.10.233,untitled,2024.1.5,None,2024-10-10 09h18.16.837520 +0530,
42,0,42,0,132.07217739988118,,132.00819829991087,5,132.07217739988118,132.07217739988118,0.0456644999794662,135.47539369994774,[-0.445],[0.05625],[1],[0],[0],[3.4228144004009664],['target'],536989,001,2024-10-10_09h18.10.233,untitled,2024.1.5,None,2024-10-10 09h18.16.837520 +0530,
43,0,43,0,135.5712771997787,,135.489178000018,5,135.5712771997787,135.5712771997787,0.04991549998521805,137.9965560999699,[-0.125],[0.015],[1],[0],[0],[2.4585099001415074],['target'],536989,001,2024-10-10_09h18.10.233,untitled,2024.1.5,None,2024-10-10 09h18.16.837520 +0530,
44,0,44,0,138.1036140001379,,138.02520370017737,5,138.1036140001379,138.1036140001379,0.061809899751096964,140.53986010001972,[-0.28],[0.09875],[1],[0],[0],[2.457673099823296],['target'],536989,001,2024-10-10_09h18.10.233,untitled,2024.1.5,None,2024-10-10 09h18.16.837520 +0530,
45,0,45,0,140.6371291000396,,140.55226910021156,5,140.6371291000396,140.6371291000396,0.053760699927806854,143.28950620023534,[-0.24625],[-0.4075],[1],[0],[0],[2.6860565999522805],['target'],536989,001,2024-10-10_09h18.10.233,untitled,2024.1.5,None,2024-10-10 09h18.16.837520 +0530,
46,0,46,0,143.4020616998896,,143.30733399977908,10,143.4020616998896,143.4020616998896,0.0682175001129508,146.62165270000696,[-0.14125],[-0.18],[1],[0],[0],[3.2489617001265287],['target'],536989,001,2024-10-10_09h18.10.233,untitled,2024.1.5,None,2024-10-10 09h18.16.837520 +0530,
47,0,47,0,146.68560370011255,,146.62753080017865,5,146.68560370011255,146.68560370011255,0.029553800355643034,149.05369970016181,[-0.14375],[0.17875],[1],[0],[0],[2.397435899823904],['target'],536989,001,2024-10-10_09h18.10.233,untitled,2024.1.5,None,2024-10-10 09h18.16.837520 +0530,
48,0,48,0,149.13820810010657,,149.06152250012383,5,149.13820810010657,149.13820810010657,0.04769630031660199,155.8683219999075,[0.2775],[-0.04875],[1],[0],[0],[6.760337600018829],['target'],536989,001,2024-10-10_09h18.10.233,untitled,2024.1.5,None,2024-10-10 09h18.16.837520 +0530,
49,0,49,0,155.93240820011124,,155.87588099995628,5,155.93240820011124,155.93240820011124,0.02930739987641573,158.90087200002745,[-0.175],[0.185],[1],[0],[0],[2.99669749988243],['target'],536989,001,2024-10-10_09h18.10.233,untitled,2024.1.5,None,2024-10-10 09h18.16.837520 +0530,
50,0,50,0,158.96512239985168,,158.90705469995737,5,158.96512239985168,158.96512239985168,0.028987300116568804,162.4380108001642,[0.11875],[0.33625],[1],[0],[0],[3.502155799884349],['target'],536989,001,2024-10-10_09h18.10.233,untitled,2024.1.5,None,2024-10-10 09h18.16.837520 +0530,
51,0,51,0,162.53154570003971,,162.4515857999213,5,162.53154570003971,162.53154570003971,0.05279809981584549,165.69978759996593,[-0.14625],[-0.195],[1],[0],[0],[3.197922599967569],['target'],536989,001,2024-10-10_09h18.10.233,untitled,2024.1.5,None,2024-10-10 09h18.16.837520 +0530,
52,0,52,0,165.76350490003824,,165.70527500007302,5,165.76350490003824,165.76350490003824,0.02826370019465685,168.8835073998198,[-0.42375],[0.3375],[1],[0],[0],[3.1501369997859],['target'],536989,001,2024-10-10_09h18.10.233,untitled,2024.1.5,None,2024-10-10 09h18.16.837520 +0530,
53,0,53,0,168.98015609988943,,168.89753620000556,5,168.98015609988943,168.98015609988943,0.05663120001554489,172.4997857999988,[0.28125],[0.07375],[1],[0],[0],[3.5486647002398968],['target'],536989,001,2024-10-10_09h18.10.233,untitled,2024.1.5,None,2024-10-10 09h18.16.837520 +0530,
54,0,54,0,172.59625650011003,,172.51232139999047,5,172.59625650011003,172.59625650011003,0.05458089988678694,176.14807360013947,[-0.27125],[0.42625],[1],[0],[0],[3.584076799917966],['target'],536989,001,2024-10-10_09h18.10.233,untitled,2024.1.5,None,2024-10-10 09h18.16.837520 +0530,
55,0,55,0,176.3113477001898,,176.16182880010456,10,176.3113477001898,176.3113477001898,0.11202780017629266,181.54576520016417,[0.4775],[-0.115],[1],[0],[0],[5.275291800033301],['target'],536989,001,2024-10-10_09h18.10.233,untitled,2024.1.5,None,2024-10-10 09h18.16.837520 +0530,
56,0,56,0,181.65948599996045,,181.5537510002032,10,181.65948599996045,181.65948599996045,0.06761319981887937,184.33013819996268,[0.31625],[-0.16125],[1],[0],[0],[2.7094837999902666],['target'],536989,001,2024-10-10_09h18.10.233,untitled,2024.1.5,None,2024-10-10 09h18.16.837520 +0530,
57,0,57,0,184.42598489997908,,184.34573120018467,5,184.42598489997908,184.42598489997908,0.05676820036023855,186.09601029986516,[0.0025],[-0.09125],[1],[0],[0],[1.6963750002905726],['target'],536989,001,2024-10-10_09h18.10.233,untitled,2024.1.5,None,2024-10-10 09h18.16.837520 +0530,
58,0,58,0,186.20876049995422,,186.1099474998191,5,186.20876049995422,186.20876049995422,0.06445469986647367,188.46203520009294,[0.0975],[0.3525],[1],[0],[0],[2.291001799982041],['target'],536989,001,2024-10-10_09h18.10.233,untitled,2024.1.5,None,2024-10-10 09h18.16.837520 +0530,
59,0,59,0,188.52517950022593,,188.4675169000402,5,188.52517950022593,188.52517950022593,0.028689200058579445,191.58297429978848,[-0.035],[-0.25875],[1],[0],[0],[3.0862273001112044],['target'],536989,001,2024-10-10_09h18.10.233,untitled,2024.1.5,None,2024-10-10 09h18.16.837520 +0530,
60,0,60,0,191.67399349994957,,191.60942790005356,5,191.67399349994957,191.67399349994957,0.052670300006866455,196.69300939980894,[0.465],[0.4725],[1],[0],[0],[5.036176600027829],['target'],536989,001,2024-10-10_09h18.10.233,untitled,2024.1.5,None,2024-10-10 09h18.16.837520 +0530,
61,0,61,0,196.806783599779,,196.7081438000314,5,196.806783599779,196.806783599779,0.0642404998652637,199.27562949992716,[-0.185],[0.07625],[1],[0],[0],[2.5069180000573397],['target'],536989,001,2024-10-10_09h18.10.233,untitled,2024.1.5,None,2024-10-10 09h18.16.837520 +0530,
62,0,62,0,199.40602289978415,,199.29146260023117,10,199.40602289978415,199.40602289978415,0.0734923998825252,202.29240979999304,[0.40875],[0.04125],[1],[0],[0],[2.9299925002269447],['target'],536989,001,2024-10-10_09h18.10.233,untitled,2024.1.5,None,2024-10-10 09h18.16.837520 +0530,
63,0,63,0,202.3713639001362,,202.30715609993786,5,202.3713639001362,202.3713639001362,0.03953059995546937,205.09176099998876,[-0.025],[0.065],[1],[0],[0],[2.747246699873358],['target'],536989,001,2024-10-10_09h18.10.233,untitled,2024.1.5,None,2024-10-10 09h18.16.837520 +0530,
64,0,64,0,205.2050104998052,,205.10607219999656,5,205.2050104998052,205.2050104998052,0.0639924998395145,207.59011609992012,[0.35125],[0.45875],[1],[0],[0],[2.422477999702096],['target'],536989,001,2024-10-10_09h18.10.233,untitled,2024.1.5,None,2024-10-10 09h18.16.837520 +0530,
65,0,65,0,207.72033380018547,,207.60464490018785,10,207.72033380018547,207.72033380018547,0.0857433001510799,210.65561209991574,[-0.21875],[0.14625],[1],[0],[0],[2.9692004998214543],['target'],536989,001,2024-10-10_09h18.10.233,untitled,2024.1.5,None,2024-10-10 09h18.16.837520 +0530,
66,0,66,0,210.8028886001557,,210.66549699986354,10,210.8028886001557,210.8028886001557,0.0987846003845334,213.7744606998749,[-0.08125],[-0.43375],[1],[0],[0],[3.0110555998981],['target'],536989,001,2024-10-10_09h18.10.233,untitled,2024.1.5,None,2024-10-10 09h18.16.837520 +0530,
67,0,67,0,213.86834890022874,,213.79512930009514,5,213.86834890022874,213.86834890022874,0.05742709990590811,225.53401120007038,[-0.45375],[-0.2025],[1],[0],[0],[11.684377099853009],['target'],536989,001,2024-10-10_09h18.10.233,untitled,2024.1.5,None,2024-10-10 09h18.16.837520 +0530,
68,0,68,0,225.64931860007346,,225.54189200000837,10,225.64931860007346,225.64931860007346,0.06780540011823177,228.18453529989347,[0.3075],[-0.1675],[1],[0],[0],[2.5765642998740077],['target'],536989,001,2024-10-10_09h18.10.233,untitled,2024.1.5,None,2024-10-10 09h18.16.837520 +0530,
69,0,69,0,228.26631270023063,,228.19322390016168,5,228.26631270023063,228.26631270023063,0.04231639998033643,230.26819889992476,[-0.16625],[-0.31875],[1],[0],[0],[2.0333981001749635],['target'],536989,001,2024-10-10_09h18.10.233,untitled,2024.1.5,None,2024-10-10 09h18.16.837520 +0530,
70,0,70,0,230.4313676999882,,230.28285010019317,10,230.4313676999882,230.4313676999882,0.11140669975429773,233.007047300227,[0.4625],[-0.105],[1],[0],[0],[2.6153440000489354],['target'],536989,001,2024-10-10_09h18.10.233,untitled,2024.1.5,None,2024-10-10 09h18.16.837520 +0530,
71,0,71,0,233.13032530015334,,233.02511289995164,5,233.13032530015334,233.13032530015334,0.06856050016358495,235.86761699989438,[-0.395],[0.4525],[1],[0],[0],[2.7768330997787416],['target'],536989,001,2024-10-10_09h18.10.233,untitled,2024.1.5,None,2024-10-10 09h18.16.837520 +0530,
72,0,72,0,235.99641769984737,,235.8816439001821,10,235.99641769984737,235.99641769984737,0.0876728999428451,238.44945729989558,[-0.47875],[-0.0775],[1],[0],[0],[2.4841943997889757],['target'],536989,001,2024-10-10_09h18.10.233,untitled,2024.1.5,None,2024-10-10 09h18.16.837520 +0530,
73,0,73,0,238.56334940018132,,238.45937329996377,10,238.56334940018132,238.56334940018132,0.06617449969053268,241.61550230020657,[0.0925],[-0.13125],[1],[0],[0],[3.0898859999142587],['target'],536989,001,2024-10-10_09h18.10.233,untitled,2024.1.5,None,2024-10-10 09h18.16.837520 +0530,
74,0,74,0,241.69567620009184,,241.62396920006722,5,241.69567620009184,241.69567620009184,0.03929019998759031,244.58334749983624,[0.0925],[0.27375],[1],[0],[0],[2.9206125997006893],['target'],536989,001,2024-10-10_09h18.10.233,untitled,2024.1.5,None,2024-10-10 09h18.16.837520 +0530,
75,0,75,0,244.66201440012082,,244.5963503997773,5,244.66201440012082,244.66201440012082,0.04536330001428723,247.28081930009648,[0.17125],[0.44625],[1],[0],[0],[2.640920499805361],['target'],536989,001,2024-10-10_09h18.10.233,untitled,2024.1.5,None,2024-10-10 09h18.16.837520 +0530,
76,0,76,0,247.37730569997802,,247.28655430022627,10,247.37730569997802,247.37730569997802,0.055164200253784657,251.3943774998188,[-0.48125],[0.37],[1],[0],[0],[4.053437099792063],['target'],536989,001,2024-10-10_09h18.10.233,untitled,2024.1.5,None,2024-10-10 09h18.16.837520 +0530,
77,0,77,0,251.47694199997932,,251.40215970017016,5,251.47694199997932,251.47694199997932,0.04788789991289377,254.2781434999779,[-0.405],[-0.29375],[1],[0],[0],[2.8292664997279644],['target'],536989,001,2024-10-10_09h18.10.233,untitled,2024.1.5,None,2024-10-10 09h18.16.837520 +0530,
78,0,78,0,254.34275140007958,,254.2840644000098,5,254.34275140007958,254.34275140007958,0.028310499619692564,256.7134604998864,[0.415],[-0.2],[1],[0],[0],[2.401001799851656],['target'],536989,001,2024-10-10_09h18.10.233,untitled,2024.1.5,None,2024-10-10 09h18.16.837520 +0530,
79,0,79,0,256.85787920001894,,256.72787600010633,10,256.85787920001894,256.85787920001894,0.10514089977368712,258.8627152000554,[0.22125],[0.22625],[1],[0],[0],[2.0317124002613127],['target'],536989,001,2024-10-10_09h18.10.233,untitled,2024.1.5,None,2024-10-10 09h18.16.837520 +0530,
80,0,80,0,259.0077851000242,,258.87939119990915,10,259.0077851000242,259.0077851000242,0.09466669987887144,261.9096547001973,[-0.4],[0.185],[1],[0],[0],[2.9391543003730476],['target'],536989,001,2024-10-10_09h18.10.233,untitled,2024.1.5,None,2024-10-10 09h18.16.837520 +0530,
81,0,81,0,261.99131370009854,,261.9176035998389,5,261.99131370009854,261.99131370009854,0.04012240003794432,264.94560200022534,[0.01875],[0.45125],[1],[0],[0],[2.988570800051093],['target'],536989,001,2024-10-10_09h18.10.233,untitled,2024.1.5,None,2024-10-10 09h18.16.837520 +0530,
82,0,82,0,265.0563942999579,,264.9589371001348,10,265.0563942999579,265.0563942999579,0.06620580004528165,268.9257505000569,[-0.265],[0.45625],[1],[0],[0],[3.903260899707675],['target'],536989,001,2024-10-10_09h18.10.233,untitled,2024.1.5,None,2024-10-10 09h18.16.837520 +0530,
83,0,83,0,269.0059329997748,,268.9399919002317,5,269.0059329997748,269.0059329997748,0.0473000998608768,271.8738440000452,[0.37],[-0.18125],[1],[0],[0],[2.890400900039822],['target'],536989,001,2024-10-10_09h18.10.233,untitled,2024.1.5,None,2024-10-10 09h18.16.837520 +0530,
84,0,84,0,271.93923960020766,,271.8793335999362,5,271.93923960020766,271.93923960020766,0.02828720025718212,274.01056129997596,[-0.25],[0.29],[1],[0],[0],[2.103115299716592],['target'],536989,001,2024-10-10_09h18.10.233,untitled,2024.1.5,None,2024-10-10 09h18.16.837520 +0530,
85,0,85,0,274.1394418999553,,274.02851459989324,10,274.1394418999553,274.1394418999553,0.07233150023967028,278.40560600021854,[0.475],[-0.20875],[1],[0],[0],[4.307828600052744],['target'],536989,001,2024-10-10_09h18.10.233,untitled,2024.1.5,None,2024-10-10 09h18.16.837520 +0530,
86,0,86,0,278.46998770022765,,278.41669949982315,5,278.46998770022765,278.46998770022765,0.037910299841314554,281.7711892002262,[-0.485],[-0.38125],[1],[0],[0],[3.3185401000082493],['target'],536989,001,2024-10-10_09h18.10.233,untitled,2024.1.5,None,2024-10-10 09h18.16.837520 +0530,
87,0,87,0,281.8872336000204,,281.7776044001803,10,281.8872336000204,281.8872336000204,0.06302390014752746,284.02006360003725,[-0.39125],[-0.17375],[1],[0],[0],[2.180984599981457],['target'],536989,001,2024-10-10_09h18.10.233,untitled,2024.1.5,None,2024-10-10 09h18.16.837520 +0530,
88,0,88,0,284.08500130008906,,284.02680310001597,5,284.08500130008906,284.08500130008906,0.03342710016295314,286.58561090007424,[-0.1125],[0.015],[1],[0],[0],[2.52648469991982],['target'],536989,001,2024-10-10_09h18.10.233,untitled,2024.1.5,None,2024-10-10 09h18.16.837520 +0530,
89,0,89,0,286.65055999998003,,286.5935927000828,5,286.65055999998003,286.65055999998003,0.03157160012051463,289.1035600001924,[-0.19625],[-0.03625],[1],[0],[0],[2.4797354000620544],['target'],536989,001,2024-10-10_09h18.10.233,untitled,2024.1.5,None,2024-10-10 09h18.16.837520 +0530,
90,0,90,0,289.1667117998004,,289.11140460008755,5,289.1667117998004,289.1667117998004,0.03125210013240576,292.26820470020175,[-0.34875],[-0.42],[1],[0],[0],[3.126500400248915],['target'],536989,001,2024-10-10_09h18.10.233,untitled,2024.1.5,None,2024-10-10 09h18.16.837520 +0530,
91,0,91,0,292.3332647001371,,292.2764566000551,5,292.3332647001371,292.3332647001371,0.038165600039064884,294.56917250016704,[-0.05375],[-0.05875],[1],[0],[0],[2.2562048002146184],['target'],536989,001,2024-10-10_09h18.10.233,untitled,2024.1.5,None,2024-10-10 09h18.16.837520 +0530,
92,0,92,0,294.6657847999595,,294.5746868997812,10,294.6657847999595,294.6657847999595,0.05638229986652732,297.3001343999058,[-0.38625],[-0.295],[1],[0],[0],[2.669680899940431],['target'],536989,001,2024-10-10_09h18.10.233,untitled,2024.1.5,None,2024-10-10 09h18.16.837520 +0530,
93,0,93,0,297.41536349989474,,297.30808370001614,10,297.41536349989474,297.41536349989474,0.06830159993842244,299.9494853001088,[-0.05],[0.18],[1],[0],[0],[2.575393700040877],['target'],536989,001,2024-10-10_09h18.10.233,untitled,2024.1.5,None,2024-10-10 09h18.16.837520 +0530,
94,0,94,0,300.04798230016604,,299.9558927998878,10,300.04798230016604,300.04798230016604,0.058496400248259306,302.44860540004447,[0.36625],[0.4325],[1],[0],[0],[2.4351879004389048],['target'],536989,001,2024-10-10_09h18.10.233,untitled,2024.1.5,None,2024-10-10 09h18.16.837520 +0530,
95,0,95,0,302.51354499999434,,302.45429100003093,5,302.51354499999434,302.51354499999434,0.032511299941688776,304.8319731000811,[-0.20625],[0.1775],[1],[0],[0],[2.346031800378114],['target'],536989,001,2024-10-10_09h18.10.233,untitled,2024.1.5,None,2024-10-10 09h18.16.837520 +0530,
96,0,96,0,304.9301463002339,,304.8381334999576,10,304.9301463002339,304.9301463002339,0.06267949985340238,307.8322792002,[0.1875],[0.49375],[1],[0],[0],[2.9319635001011193],['target'],536989,001,2024-10-10_09h18.10.233,untitled,2024.1.5,None,2024-10-10 09h18.16.837520 +0530,
97,0,97,0,307.9465232999064,,307.84109319979325,10,307.9465232999064,307.9465232999064,0.06968710012733936,311.3808582997881,[0.3725],[0.2625],[1],[0],[0],[3.4712988999672234],['target'],536989,001,2024-10-10_09h18.10.233,untitled,2024.1.5,None,2024-10-10 09h18.16.837520 +0530,
98,0,98,0,311.44596520019695,,311.38600850012153,5,311.44596520019695,311.44596520019695,0.030114400200545788,314.0318156001158,[-0.48375],[-0.41125],[1],[0],[0],[2.616108499933034],['target'],536989,001,2024-10-10_09h18.10.233,untitled,2024.1.5,None,2024-10-10 09h18.16.837520 +0530,
99,0,99,0,314.12796409986913,,314.03827039990574,10,314.12796409986913,314.12796409986913,0.06340260012075305,316.32846490014344,[0.04125],[-0.2775],[1],[0],[0],[2.2279775999486446],['target'],536989,001,2024-10-10_09h18.10.233,untitled,2024.1.5,None,2024-10-10 09h18.16.837520 +0530,
100,0,100,0,316.3938369997777,,316.3394089001231,5,316.3938369997777,316.3938369997777,0.03560790000483394,319.1957371002063,[-0.4625],[0.3225],[1],[0],[0],[2.82299070013687],['target'],536989,001,2024-10-10_09h18.10.233,untitled,2024.1.5,None,2024-10-10 09h18.16.837520 +0530,
101,0,101,0,319.29286879999563,,319.20284780021757,10,319.29286879999563,319.29286879999563,0.06149360025301576,323.444116699975,[0.34],[0.4175],[1],[0],[0],[4.18085249979049],['target'],536989,001,2024-10-10_09h18.10.233,untitled,2024.1.5,None,2024-10-10 09h18.16.837520 +0530,
102,0,102,0,323.5585703002289,,323.4506331998855,10,323.5585703002289,323.5585703002289,0.07054509967565536,325.9769271002151,[0.2925],[-0.07875],[1],[0],[0],[2.4566863998770714],['target'],536989,001,2024-10-10_09h18.10.233,untitled,2024.1.5,None,2024-10-10 09h18.16.837520 +0530,
103,0,103,0,326.04158309986815,,325.98333059996367,5,326.04158309986815,326.04158309986815,0.03550789970904589,329.8098818999715,[0.37875],[-0.215],[1],[0],[0],[3.7921969001181424],['target'],536989,001,2024-10-10_09h18.10.233,untitled,2024.1.5,None,2024-10-10 09h18.16.837520 +0530,
104,0,104,0,329.90690270019695,,329.8165935999714,10,329.90690270019695,329.90690270019695,0.060213600285351276,332.12475490011275,[0.13625],[-0.14625],[1],[0],[0],[2.2486117999069393],['target'],536989,001,2024-10-10_09h18.10.233,untitled,2024.1.5,None,2024-10-10 09h18.16.837520 +0530,
105,0,105,0,332.18999919993803,,332.13269850006327,5,332.18999919993803,332.18999919993803,0.033866699784994125,334.50864249980077,[-0.12875],[-0.06125],[1],[0],[0],[2.3432763000018895],['target'],536989,001,2024-10-10_09h18.10.233,untitled,2024.1.5,None,2024-10-10 09h18.16.837520 +0530,
106,0,106,0,334.6228579999879,,334.51632549986243,10,334.6228579999879,334.6228579999879,0.06647729966789484,339.1905493000522,[-0.01],[-0.4725],[1],[0],[0],[4.608252599835396],['target'],536989,001,2024-10-10_09h18.10.233,untitled,2024.1.5,None,2024-10-10 09h18.16.837520 +0530,
107,0,107,0,339.27170890010893,,339.1987057002261,5,339.27170890010893,339.27170890010893,0.04137359978631139,341.90652719978243,[0.395],[-0.27875],[1],[0],[0],[2.6669602999463677],['target'],536989,001,2024-10-10_09h18.10.233,untitled,2024.1.5,None,2024-10-10 09h18.16.837520 +0530,
108,0,108,0,342.0373816997744,,341.912857899908,10,342.0373816997744,342.0373816997744,0.08465079963207245,345.40611020009965,[-0.185],[-0.0475],[1],[0],[0],[3.4091400001198053],['target'],536989,001,2024-10-10_09h18.10.233,untitled,2024.1.5,None,2024-10-10 09h18.16.837520 +0530,
109,0,109,0,345.52014819998294,,345.41449130000547,10,345.52014819998294,345.52014819998294,0.06766919977962971,349.088341999799,[0.06375],[0.365],[1],[0],[0],[3.607972000259906],['target'],536989,001,2024-10-10_09h18.10.233,untitled,2024.1.5,None,2024-10-10 09h18.16.837520 +0530,
110,0,110,0,349.2024407000281,,349.0989378998056,10,349.2024407000281,349.2024407000281,0.06728460034355521,352.1377030001022,[-0.27875],[0.31375],[1],[0],[0],[2.9729385999962687],['target'],536989,001,2024-10-10_09h18.10.233,untitled,2024.1.5,None,2024-10-10 09h18.16.837520 +0530,
111,0,111,0,352.2020727000199,,352.14274650020525,5,352.2020727000199,352.2020727000199,0.027857800014317036,354.43845670018345,[0.13625],[-0.0075],[1],[0],[0],[2.2683982998132706],['target'],536989,001,2024-10-10_09h18.10.233,untitled,2024.1.5,None,2024-10-10 09h18.16.837520 +0530,
112,0,112,0,354.53481219988316,,354.4440959999338,10,354.53481219988316,354.53481219988316,0.05427799979224801,357.16857599979267,[0.1175],[0.31875],[1],[0],[0],[2.670850799884647],['target'],536989,001,2024-10-10_09h18.10.233,untitled,2024.1.5,None,2024-10-10 09h18.16.837520 +0530,
113,0,113,0,357.2340151001699,,357.17385340016335,5,357.2340151001699,357.2340151001699,0.029508099891245365,359.05261400016025,[0.1575],[0.2],[1],[0],[0],[1.8499344000592828],['target'],536989,001,2024-10-10_09h18.10.233,untitled,2024.1.5,None,2024-10-10 09h18.16.837520 +0530,
114,0,114,0,359.1505423001945,,359.05806059995666,10,359.1505423001945,359.1505423001945,0.054878899827599525,362.80199299985543,[-0.165],[0.4325],[1],[0],[0],[3.6894529000855982],['target'],536989,001,2024-10-10_09h18.10.233,untitled,2024.1.5,None,2024-10-10 09h18.16.837520 +0530,
115,0,115,0,362.9158737999387,,362.8096690000966,10,362.9158737999387,362.9158737999387,0.07705349987372756,365.03567529981956,[0.06625],[-0.27875],[1],[0],[0],[2.149664499796927],['target'],536989,001,2024-10-10_09h18.10.233,untitled,2024.1.5,None,2024-10-10 09h18.16.837520 +0530,
116,0,116,0,365.11552610015497,,365.04770149989054,5,365.11552610015497,365.11552610015497,0.047751099802553654,367.60165729979053,[0.40125],[0.24375],[1],[0],[0],[2.5090910997241735],['target'],536989,001,2024-10-10_09h18.10.233,untitled,2024.1.5,None,2024-10-10 09h18.16.837520 +0530,
117,0,117,0,367.71477039996535,,367.6073663998395,10,367.71477039996535,367.71477039996535,0.0636044000275433,371.58345569996163,[0.45875],[-0.33375],[1],[0],[0],[3.9132928997278214],['target'],536989,001,2024-10-10_09h18.10.233,untitled,2024.1.5,None,2024-10-10 09h18.16.837520 +0530,
118,0,118,0,371.6974678002298,,371.59212379995733,10,371.6974678002298,371.6974678002298,0.06991249974817038,375.1991674997844,[0.2325],[-0.0325],[1],[0],[0],[3.538527900353074],['target'],536989,001,2024-10-10_09h18.10.233,untitled,2024.1.5,None,2024-10-10 09h18.16.837520 +0530,
119,0,119,0,375.2795351999812,,375.2059460999444,5,375.2795351999812,375.2795351999812,0.045484399888664484,378.15012479992583,[-0.1225],[0.09625],[1],[0],[0],[2.899035499896854],['target'],536989,001,2024-10-10_09h18.10.233,untitled,2024.1.5,None,2024-10-10 09h18.16.837520 +0530,
120,0,120,0,378.2958391001448,,378.16500229993835,10,378.2958391001448,378.2958391001448,0.09403940010815859,380.2144504999742,[0.2175],[0.035],[1],[0],[0],[1.9586064000613987],['target'],536989,001,2024-10-10_09h18.10.233,untitled,2024.1.5,None,2024-10-10 09h18.16.837520 +0530,
121,0,121,0,380.3288528001867,,380.22201190004125,10,380.3288528001867,380.3288528001867,0.0680057997815311,382.6481046997942,[-0.3175],[0.03625],[1],[0],[0],[2.3587981001473963],['target'],536989,001,2024-10-10_09h18.10.233,untitled,2024.1.5,None,2024-10-10 09h18.16.837520 +0530,
122,0,122,0,382.7290552002378,,382.65992120001465,5,382.7290552002378,382.7290552002378,0.03797479998320341,384.94658009987324,[-0.02375],[-0.24375],[1],[0],[0],[2.251751400064677],['target'],536989,001,2024-10-10_09h18.10.233,untitled,2024.1.5,None,2024-10-10 09h18.16.837520 +0530,
123,0,123,0,385.0104288998991,,384.95185599988326,5,385.0104288998991,385.0104288998991,0.02856949996203184,388.3148726001382,[-0.29125],[0.395],[1],[0],[0],[3.3345158002339303],['target'],536989,001,2024-10-10_09h18.10.233,untitled,2024.1.5,None,2024-10-10 09h18.16.837520 +0530,
124,0,124,0,388.4099889001809,,388.33617360005155,5,388.4099889001809,388.4099889001809,0.04346329998224974,392.1290750000626,[0.10625],[0.195],[1],[0],[0],[3.7523011001758277],['target'],536989,001,2024-10-10_09h18.10.233,untitled,2024.1.5,None,2024-10-10 09h18.16.837520 +0530,
125,0,125,0,392.2097069998272,,392.1432022000663,5,392.2097069998272,392.2097069998272,0.04968409985303879,393.7444972000085,[0.12375],[0.19],[1],[0],[0],[1.55555749963969],['target'],536989,001,2024-10-10_09h18.10.233,untitled,2024.1.5,None,2024-10-10 09h18.16.837520 +0530,
126,0,126,0,393.84213559981436,,393.74996849987656,10,393.84213559981436,393.84213559981436,0.053920899983495474,396.0274827000685,[0.06625],[-0.02375],[1],[0],[0],[2.224084900226444],['target'],536989,001,2024-10-10_09h18.10.233,untitled,2024.1.5,None,2024-10-10 09h18.16.837520 +0530,
127,0,127,0,396.0915116998367,,396.0352574000135,5,396.0915116998367,396.0915116998367,0.03872170019894838,399.09716740017757,[0.10375],[-0.4575],[1],[0],[0],[3.0235445997677743],['target'],536989,001,2024-10-10_09h18.10.233,untitled,2024.1.5,None,2024-10-10 09h18.16.837520 +0530,
128,0,128,0,399.2405873998068,,399.11089390004054,10,399.2405873998068,399.2405873998068,0.0769726000726223,401.40964230010286,[0.345],[0.25],[1],[0],[0],[2.2240634001791477],['target'],536989,001,2024-10-10_09h18.10.233,untitled,2024.1.5,None,2024-10-10 09h18.16.837520 +0530,
129,0,129,0,401.47504210006446,,401.41856550006196,5,401.47504210006446,401.47504210006446,0.0370895997621119,403.6095239999704,[-0.12],[0.3275],[1],[0],[0],[2.155198600143194],['target'],536989,001,2024-10-10_09h18.10.233,untitled,2024.1.5,None,2024-10-10 09h18.16.837520 +0530,
130,0,130,0,403.7063768999651,,403.61509349988773,10,403.7063768999651,403.7063768999651,0.05398650001734495,406.65827909996733,[-0.32],[0.31625],[1],[0],[0],[2.9896811000071466],['target'],536989,001,2024-10-10_09h18.10.233,untitled,2024.1.5,None,2024-10-10 09h18.16.837520 +0530,
131,0,131,0,406.7888318998739,,406.67800340009853,10,406.7888318998739,406.7888318998739,0.08372889971360564,409.45947050023824,[0.375],[0.1325],[1],[0],[0],[2.7013217001222074],['target'],536989,001,2024-10-10_09h18.10.233,untitled,2024.1.5,None,2024-10-10 09h18.16.837520 +0530,
132,0,132,0,409.538722100202,,409.4672794002108,5,409.538722100202,409.538722100202,0.04030840005725622,411.67472610017285,[0.0425],[0.1025],[1],[0],[0],[2.168058699928224],['target'],536989,001,2024-10-10_09h18.10.233,untitled,2024.1.5,None,2024-10-10 09h18.16.837520 +0530,
133,0,133,0,411.7377558997832,,411.6847286000848,5,411.7377558997832,411.7377558997832,0.03660620003938675,414.4051179001108,[-0.375],[0.08375],[1],[0],[0],[2.6852802000939846],['target'],536989,001,2024-10-10_09h18.10.233,untitled,2024.1.5,None,2024-10-10 09h18.16.837520 +0530,
134,0,134,0,414.48700299998745,,414.41465390007943,5,414.48700299998745,414.48700299998745,0.04084469983354211,418.0230741999112,[-0.38375],[-0.2975],[1],[0],[0],[3.569102100096643],['target'],536989,001,2024-10-10_09h18.10.233,untitled,2024.1.5,None,2024-10-10 09h18.16.837520 +0530,
135,0,135,0,418.1528046000749,,418.0355956000276,10,418.1528046000749,418.1528046000749,0.08547479985281825,422.0879135001451,[-0.08375],[-0.37375],[1],[0],[0],[3.969612500164658],['target'],536989,001,2024-10-10_09h18.10.233,untitled,2024.1.5,None,2024-10-10 09h18.16.837520 +0530,
136,0,136,0,422.16937599983066,,422.09543260000646,5,422.16937599983066,422.16937599983066,0.03925030026584864,424.1397322001867,[0.47],[0.2875],[1],[0],[0],[2.005763499997556],['target'],536989,001,2024-10-10_09h18.10.233,untitled,2024.1.5,None,2024-10-10 09h18.16.837520 +0530,
137,0,137,0,424.25261900015175,,424.1546285999939,5,424.25261900015175,424.25261900015175,0.06665739975869656,425.9885937999934,[0.2475],[0.2275],[1],[0],[0],[1.7702750996686518],['target'],536989,001,2024-10-10_09h18.10.233,untitled,2024.1.5,None,2024-10-10 09h18.16.837520 +0530,
138,0,138,0,426.11778330011293,,425.99714139988646,10,426.11778330011293,426.11778330011293,0.08849669992923737,429.0542669999413,[0.005],[-0.42125],[1],[0],[0],[2.9693995998241007],['target'],536989,001,2024-10-10_09h18.10.233,untitled,2024.1.5,None,2024-10-10 09h18.16.837520 +0530,
139,0,139,0,429.1835369998589,,429.068553800229,10,429.1835369998589,429.1835369998589,0.08000240009278059,431.7517881002277,[-0.00875],[-0.36],[1],[0],[0],[2.606734700035304],['target'],536989,001,2024-10-10_09h18.10.233,untitled,2024.1.5,None,2024-10-10 09h18.16.837520 +0530,
140,0,140,0,431.8357971999794,,431.7594902999699,5,431.8357971999794,431.8357971999794,0.03979500010609627,433.7196144000627,[0.055],[-0.3525],[1],[0],[0],[1.9209225997328758],['target'],536989,001,2024-10-10_09h18.10.233,untitled,2024.1.5,None,2024-10-10 09h18.16.837520 +0530,
141,0,141,0,433.7989742998034,,433.73370350012556,5,433.7989742998034,433.7989742998034,0.04626769991591573,436.0862273001112,[0.4575],[-0.3925],[1],[0],[0],[2.3094685999676585],['target'],536989,001,2024-10-10_09h18.10.233,untitled,2024.1.5,None,2024-10-10 09h18.16.837520 +0530,
142,0,142,0,436.2319348999299,,436.0992863001302,10,436.2319348999299,436.2319348999299,0.10200659977272153,439.0669048000127,[0.385],[0.455],[1],[0],[0],[2.868556199595332],['target'],536989,001,2024-10-10_09h18.10.233,untitled,2024.1.5,None,2024-10-10 09h18.16.837520 +0530,
143,0,143,0,439.1487528998405,,439.0749881998636,5,439.1487528998405,439.1487528998405,0.04321079980581999,442.5828841999173,[0.085],[-0.3575],[1],[0],[0],[3.465931999962777],['target'],536989,001,2024-10-10_09h18.10.233,untitled,2024.1.5,None,2024-10-10 09h18.16.837520 +0530,
144,0,144,0,442.6804066998884,,442.5883535002358,10,442.6804066998884,442.6804066998884,0.053251300007104874,446.1315875998698,[0.4725],[0.4575],[1],[0],[0],[3.4904171000234783],['target'],536989,001,2024-10-10_09h18.10.233,untitled,2024.1.5,None,2024-10-10 09h18.16.837520 +0530,
145,0,145,0,446.2462335000746,,446.1395164001733,10,446.2462335000746,446.2462335000746,0.07105230027809739,448.9013714999892,[-0.0675],[0.1825],[1],[0],[0],[2.691170900128782],['target'],536989,001,2024-10-10_09h18.10.233,untitled,2024.1.5,None,2024-10-10 09h18.16.837520 +0530,
146,0,146,0,449.01280489983037,,448.9222665000707,5,449.01280489983037,449.01280489983037,0.06967510003596544,452.19653390021995,[-0.4825],[-0.18],[1],[0],[0],[3.2103645000606775],['target'],536989,001,2024-10-10_09h18.10.233,untitled,2024.1.5,None,2024-10-10 09h18.16.837520 +0530,
147,0,147,0,452.2608175999485,,452.2037701997906,5,452.2608175999485,452.2608175999485,0.03349020006135106,454.4122779001482,[0.27625],[0.06125],[1],[0],[0],[2.175771899987012],['target'],536989,001,2024-10-10_09h18.10.233,untitled,2024.1.5,None,2024-10-10 09h18.16.837520 +0530,
148,0,148,0,454.47755260020494,,454.41969429980963,5,454.47755260020494,454.47755260020494,0.03436509985476732,458.0612543998286,[-0.45375],[-0.40125],[1],[0],[0],[3.6079611997120082],['target'],536989,001,2024-10-10_09h18.10.233,untitled,2024.1.5,None,2024-10-10 09h18.16.837520 +0530,
149,0,149,0,458.17719369987026,,458.0666736001149,10,458.17719369987026,458.17719369987026,0.06948009971529245,460.9284928999841,[-0.4825],[0.01],[1],[0],[0],[2.7927085999399424],['target'],536989,001,2024-10-10_09h18.10.233,untitled,2024.1.5,None,2024-10-10 09h18.16.837520 +0530,
150,0,150,0,461.06013819994405,,460.9398353002034,10,461.06013819994405,461.06013819994405,0.090616500005126,463.64612819999456,[-0.41375],[-0.21],[1],[0],[0],[2.6175075001083314],['target'],536989,001,2024-10-10_09h18.10.233,untitled,2024.1.5,None,2024-10-10 09h18.16.837520 +0530,
151,0,151,0,463.79197070002556,,463.6560578998178,10,463.79197070002556,463.79197070002556,0.08700460009276867,466.51143330009654,[0.2975],[0.38875],[1],[0],[0],[2.769920099992305],['target'],536989,001,2024-10-10_09h18.10.233,untitled,2024.1.5,None,2024-10-10 09h18.16.837520 +0530,
152,0,152,0,466.6244017998688,,466.5233172001317,10,466.6244017998688,466.6244017998688,0.06546459998935461,468.7258223001845,[-0.235],[0.2175],[1],[0],[0],[2.1395894000306726],['target'],536989,001,2024-10-10_09h18.10.233,untitled,2024.1.5,None,2024-10-10 09h18.16.837520 +0530,
153,0,153,0,468.82365000015125,,468.73099360009655,10,468.82365000015125,468.82365000015125,0.05912400037050247,471.1251706001349,[-0.33625],[-0.21875],[1],[0],[0],[2.335611800197512],['target'],536989,001,2024-10-10_09h18.10.233,untitled,2024.1.5,None,2024-10-10 09h18.16.837520 +0530,
154,0,154,0,471.2396526997909,,471.1320962999016,10,471.2396526997909,471.2396526997909,0.06355170020833611,474.1915639000945,[0.25875],[0.2425],[1],[0],[0],[2.9967375001870096],['target'],536989,001,2024-10-10_09h18.10.233,untitled,2024.1.5,None,2024-10-10 09h18.16.837520 +0530,
155,0,155,0,474.2730490998365,,474.20005729980767,5,474.2730490998365,474.2730490998365,0.04033490037545562,477.1571761998348,[0.33625],[0.41375],[1],[0],[0],[2.9177489997819066],['target'],536989,001,2024-10-10_09h18.10.233,untitled,2024.1.5,None,2024-10-10 09h18.16.837520 +0530,
156,0,156,0,477.221675099805,,477.16503719985485,5,477.221675099805,477.221675099805,0.03712419979274273,479.72419189987704,[-0.35125],[-0.08125],[1],[0],[0],[2.52371249999851],['target'],536989,001,2024-10-10_09h18.10.233,untitled,2024.1.5,None,2024-10-10 09h18.16.837520 +0530,
157,0,157,0,479.82123450003564,,479.7303948998451,10,479.82123450003564,479.82123450003564,0.05976299988105893,483.688145800028,[-0.35625],[0.3725],[1],[0],[0],[3.8987875999882817],['target'],536989,001,2024-10-10_09h18.10.233,untitled,2024.1.5,None,2024-10-10 09h18.16.837520 +0530,
158,0,158,0,483.7870992999524,,483.6949260998517,10,483.7870992999524,483.7870992999524,0.05835519963875413,486.1220911000855,[-0.30375],[-0.075],[1],[0],[0],[2.3696826002560556],['target'],536989,001,2024-10-10_09h18.10.233,untitled,2024.1.5,None,2024-10-10 09h18.16.837520 +0530,
159,0,159,0,486.26991510018706,,486.1272227000445,10,486.26991510018706,486.26991510018706,0.10891110030934215,488.10680259997025,[-0.13875],[-0.23125],[1],[0],[0],[1.871097099967301],['target'],536989,001,2024-10-10_09h18.10.233,untitled,2024.1.5,None,2024-10-10 09h18.16.837520 +0530,
160,0,160,0,488.2201581001282,,488.1204051999375,5,488.2201581001282,488.2201581001282,0.06551179988309741,490.20575529988855,[-0.3125],[0.06875],[1],[0],[0],[2.0226976997219026],['target'],536989,001,2024-10-10_09h18.10.233,untitled,2024.1.5,None,2024-10-10 09h18.16.837520 +0530,
161,0,161,0,490.31901999982074,,490.2228035000153,5,490.31901999982074,490.31901999982074,0.06079429993405938,492.75454489979893,[0.1425],[-0.40375],[1],[0],[0],[2.473252300173044],['target'],536989,001,2024-10-10_09h18.10.233,untitled,2024.1.5,None,2024-10-10 09h18.16.837520 +0530,
162,0,162,0,492.8679726999253,,492.7703025001101,5,492.8679726999253,492.8679726999253,0.05519360024482012,497.03650130005553,[-0.45625],[0.2725],[1],[0],[0],[4.213744999840856],['target'],536989,001,2024-10-10_09h18.10.233,untitled,2024.1.5,None,2024-10-10 09h18.16.837520 +0530,
163,0,163,0,497.1170584000647,,497.04444470023736,5,497.1170584000647,497.1170584000647,0.03748800000175834,499.53499750001356,[0.3425],[0.1975],[1],[0],[0],[2.4543012003414333],['target'],536989,001,2024-10-10_09h18.10.233,untitled,2024.1.5,None,2024-10-10 09h18.16.837520 +0530,
164,0,164,0,499.59975910000503,,499.5429400000721,5,499.59975910000503,499.59975910000503,0.034695500042289495,502.80102640017867,[-0.3825],[0.435],[1],[0],[0],[3.2245760997757316],['target'],536989,001,2024-10-10_09h18.10.233,untitled,2024.1.5,None,2024-10-10 09h18.16.837520 +0530,
165,0,165,0,502.91566370008513,,502.8122358000837,10,502.91566370008513,502.91566370008513,0.0639062998816371,506.5661240001209,[-0.3925],[0.0625],[1],[0],[0],[3.6911141998134553],['target'],536989,001,2024-10-10_09h18.10.233,untitled,2024.1.5,None,2024-10-10 09h18.16.837520 +0530,
166,0,166,0,506.63122089998797,,506.57689240016043,5,506.63122089998797,506.63122089998797,0.0377548998221755,508.650124900043,[-0.19625],[-0.13875],[1],[0],[0],[2.037599400151521],['target'],536989,001,2024-10-10_09h18.10.233,untitled,2024.1.5,None,2024-10-10 09h18.16.837520 +0530,
167,0,167,0,508.7639596001245,,508.65860360022634,10,508.7639596001245,508.7639596001245,0.06814040010794997,511.398802800104,[-0.1175],[-0.28125],[1],[0],[0],[2.67294940026477],['target'],536989,001,2024-10-10_09h18.10.233,untitled,2024.1.5,None,2024-10-10 09h18.16.837520 +0530,
168,0,168,0,511.5134712997824,,511.4056967999786,10,511.5134712997824,511.5134712997824,0.06555490009486675,514.448146100156,[-0.3825],[-0.42875],[1],[0],[0],[2.9775094999931753],['target'],536989,001,2024-10-10_09h18.10.233,untitled,2024.1.5,None,2024-10-10 09h18.16.837520 +0530,
169,0,169,0,514.5126351998188,,514.4558699000627,5,514.5126351998188,514.5126351998188,0.0363583997823298,517.6636592000723,[0.485],[0.34],[1],[0],[0],[3.172635499853641],['target'],536989,001,2024-10-10_09h18.10.233,untitled,2024.1.5,None,2024-10-10 09h18.16.837520 +0530,
170,0,170,0,517.7619129000232,,517.671765900217,10,517.7619129000232,517.7619129000232,0.0619123000651598,520.1310638999566,[0.2925],[-0.39375],[1],[0],[0],[2.398559399880469],['target'],536989,001,2024-10-10_09h18.10.233,untitled,2024.1.5,None,2024-10-10 09h18.16.837520 +0530,
171,0,171,0,520.1946521000937,,520.1385650997981,5,520.1946521000937,520.1946521000937,0.0316497003659606,521.9138599000871,[-0.21125],[0.08125],[1],[0],[0],[1.7441150001250207],['target'],536989,001,2024-10-10_09h18.10.233,untitled,2024.1.5,None,2024-10-10 09h18.16.837520 +0530,
172,0,172,0,522.0276290001348,,521.9219527998939,10,522.0276290001348,522.0276290001348,0.07342860009521246,525.2951318998821,[-0.06125],[-0.44],[1],[0],[0],[3.3011472998186946],['target'],536989,001,2024-10-10_09h18.10.233,untitled,2024.1.5,None,2024-10-10 09h18.16.837520 +0530,
173,0,173,0,525.4103276999667,,525.3037581997924,10,525.4103276999667,525.4103276999667,0.0713623003102839,527.6951778000221,[0.04125],[0.36375],[1],[0],[0],[2.321666299831122],['target'],536989,001,2024-10-10_09h18.10.233,untitled,2024.1.5,None,2024-10-10 09h18.16.837520 +0530,
174,0,174,0,527.809564600233,,527.7015177998692,10,527.809564600233,527.809564600233,0.07475570030510426,530.7772606997751,[-0.2825],[-0.1125],[1],[0],[0],[3.001715200021863],['target'],536989,001,2024-10-10_09h18.10.233,untitled,2024.1.5,None,2024-10-10 09h18.16.837520 +0530,
175,0,175,0,530.8425389002077,,530.7854245002382,5,530.8425389002077,530.8425389002077,0.032581000123173,533.1102579999715,[0.26375],[0.38125],[1],[0],[0],[2.293946099933237],['target'],536989,001,2024-10-10_09h18.10.233,untitled,2024.1.5,None,2024-10-10 09h18.16.837520 +0530,
176,0,176,0,533.2250981000252,,533.1177818002179,10,533.2250981000252,533.2250981000252,0.0667952997609973,535.96086189989,[-0.28625],[0.40125],[1],[0],[0],[2.7772614997811615],['target'],536989,001,2024-10-10_09h18.10.233,untitled,2024.1.5,None,2024-10-10 09h18.16.837520 +0530,
177,0,177,0,536.0408140998334,,535.9691874999553,5,536.0408140998334,536.0408140998334,0.03831270011141896,538.1924115000293,[0.275],[0.22625],[1],[0],[0],[2.186405399814248],['target'],536989,001,2024-10-10_09h18.10.233,untitled,2024.1.5,None,2024-10-10 09h18.16.837520 +0530,
178,0,178,0,538.3070847000927,,538.1990121002309,10,538.3070847000927,538.3070847000927,0.06514119962230325,541.2085541998968,[0.43375],[-0.1325],[1],[0],[0],[2.945635400246829],['target'],536989,001,2024-10-10_09h18.10.233,untitled,2024.1.5,None,2024-10-10 09h18.16.837520 +0530,
179,0,179,0,541.273071100004,,541.2159345000982,5,541.273071100004,541.273071100004,0.03514050040394068,543.3588029998355,[-0.19625],[-0.105],[1],[0],[0],[2.108990400098264],['target'],536989,001,2024-10-10_09h18.10.233,untitled,2024.1.5,None,2024-10-10 09h18.16.837520 +0530,
180,0,180,0,543.4722115998156,,543.366329099983,10,543.4722115998156,543.4722115998156,0.06906659994274378,546.1405759998597,[0.40625],[-0.24375],[1],[0],[0],[2.7063846001401544],['target'],536989,001,2024-10-10_09h18.10.233,untitled,2024.1.5,None,2024-10-10 09h18.16.837520 +0530,
181,0,181,0,546.238406599965,,546.146335599944,10,546.238406599965,546.238406599965,0.061683000065386295,550.8728101998568,[0.1775],[-0.03],[1],[0],[0],[4.665345400106162],['target'],536989,001,2024-10-10_09h18.10.233,untitled,2024.1.5,None,2024-10-10 09h18.16.837520 +0530,
182,0,182,0,550.9872472002171,,550.8792437999509,10,550.9872472002171,550.9872472002171,0.067809599917382,555.5720227998681,[0.4625],[0.08],[1],[0],[0],[4.626652100123465],['target'],536989,001,2024-10-10_09h18.10.233,untitled,2024.1.5,None,2024-10-10 09h18.16.837520 +0530,
183,0,183,0,555.6863963999785,,555.5794464000501,10,555.6863963999785,555.6863963999785,0.07706259982660413,560.3538375999779,[-0.48625],[0.28375],[1],[0],[0],[4.698079300113022],['target'],536989,001,2024-10-10_09h18.10.233,untitled,2024.1.5,None,2024-10-10 09h18.16.837520 +0530,
184,0,184,0,560.418353700079,,560.3607760001905,5,560.418353700079,560.418353700079,0.033519099932163954,562.7714555999264,[-0.08],[0.3375],[1],[0],[0],[2.377553700003773],['target'],536989,001,2024-10-10_09h18.10.233,untitled,2024.1.5,None,2024-10-10 09h18.16.837520 +0530,
185,0,185,0,562.8514741999097,,562.7837554002181,5,562.8514741999097,562.8514741999097,0.04252950008958578,565.0047646001913,[0.21625],[0.00375],[1],[0],[0],[2.1810961002483964],['target'],536989,001,2024-10-10_09h18.10.233,untitled,2024.1.5,None,2024-10-10 09h18.16.837520 +0530,
186,0,186,0,565.0839236001484,,565.0188670000061,5,565.0839236001484,565.0839236001484,0.04836420016363263,567.2202089000493,[-0.10125],[0.3275],[1],[0],[0],[2.1569813997484744],['target'],536989,001,2024-10-10_09h18.10.233,untitled,2024.1.5,None,2024-10-10 09h18.16.837520 +0530,
187,0,187,0,567.3504245001823,,567.2342229001224,10,567.3504245001823,567.3504245001823,0.08743979968130589,569.6518597002141,[-0.35375],[-0.25375],[1],[0],[0],[2.3337810998782516],['target'],536989,001,2024-10-10_09h18.10.233,untitled,2024.1.5,None,2024-10-10 09h18.16.837520 +0530,
188,0,188,0,569.7495238999836,,569.6601359997876,10,569.7495238999836,569.7495238999836,0.058968199882656336,574.6715910998173,[-0.3625],[0.32],[1],[0],[0],[4.9527981001883745],['target'],536989,001,2024-10-10_09h18.10.233,untitled,2024.1.5,None,2024-10-10 09h18.16.837520 +0530,
189,0,189,0,574.7985180998221,,574.6920842998661,5,574.7985180998221,574.7985180998221,0.08712689997628331,576.5502581000328,[-0.3475],[0.2875],[1],[0],[0],[1.7741916999220848],['target'],536989,001,2024-10-10_09h18.10.233,untitled,2024.1.5,None,2024-10-10 09h18.16.837520 +0530,
190,0,190,0,576.6150015001185,,576.5574994999915,5,576.6150015001185,576.6150015001185,0.036860099993646145,579.2676061000675,[0.0475],[-0.385],[1],[0],[0],[2.673739899881184],['target'],536989,001,2024-10-10_09h18.10.233,untitled,2024.1.5,None,2024-10-10 09h18.16.837520 +0530,
191,0,191,0,579.3471575002186,,579.2812940999866,5,579.3471575002186,579.3471575002186,0.05100760003551841,582.9333815001883,[-0.20625],[0.18875],[1],[0],[0],[3.6045007999055088],['target'],536989,001,2024-10-10_09h18.10.233,untitled,2024.1.5,None,2024-10-10 09h18.16.837520 +0530,
192,0,192,0,583.0129704000428,,582.9468307998031,5,583.0129704000428,583.0129704000428,0.0492425998672843,585.7326376000419,[0.30625],[-0.0125],[1],[0],[0],[2.7400818997994065],['target'],536989,001,2024-10-10_09h18.10.233,untitled,2024.1.5,None,2024-10-10 09h18.16.837520 +0530,
193,0,193,0,585.8623701999895,,585.7454920001328,10,585.8623701999895,585.8623701999895,0.08659779978916049,587.6155846999027,[0.32625],[-0.02625],[1],[0],[0],[1.786365699954331],['target'],536989,001,2024-10-10_09h18.10.233,untitled,2024.1.5,None,2024-10-10 09h18.16.837520 +0530,
194,0,194,0,587.7618332002312,,587.6294909999706,10,587.7618332002312,587.7618332002312,0.10207269992679358,591.3505962002091,[-0.2275],[0.09625],[1],[0],[0],[3.621370099950582],['target'],536989,001,2024-10-10_09h18.10.233,untitled,2024.1.5,None,2024-10-10 09h18.16.837520 +0530,
195,0,195,0,591.4441272001714,,591.366985199973,5,591.4441272001714,591.4441272001714,0.0523955998942256,592.997947299853,[0.1825],[0.005],[1],[0],[0],[1.5813521998934448],['target'],536989,001,2024-10-10_09h18.10.233,untitled,2024.1.5,None,2024-10-10 09h18.16.837520 +0530,
196,0,196,0,593.1439793999307,,593.0111052999273,10,593.1439793999307,593.1439793999307,0.09799829963594675,595.7643462000415,[0.13],[-0.245],[1],[0],[0],[2.658524500206113],['target'],536989,001,2024-10-10_09h18.10.233,untitled,2024.1.5,None,2024-10-10 09h18.16.837520 +0530,
197,0,197,0,595.8595982999541,,595.7720833998173,10,595.8595982999541,595.8595982999541,0.06425639986991882,598.3617090000771,[-0.3975],[-0.08],[1],[0],[0],[2.526374399662018],['target'],536989,001,2024-10-10_09h18.10.233,untitled,2024.1.5,None,2024-10-10 09h18.16.837520 +0530,
198,0,198,0,598.4259883002378,,598.3691441002302,5,598.4259883002378,598.4259883002378,0.03724780026823282,601.2285342002288,[-0.41625],[-0.2075],[1],[0],[0],[2.8229365996085107],['target'],536989,001,2024-10-10_09h18.10.233,untitled,2024.1.5,None,2024-10-10 09h18.16.837520 +0530,
199,0,199,0,601.3086342001334,,601.2374725001864,5,601.3086342001334,601.3086342001334,0.043779199942946434,603.1629892000929,[-0.04875],[0.19875],[1],[0],[0],[1.882774000056088],['target'],536989,001,2024-10-10_09h18.10.233,untitled,2024.1.5,None,2024-10-10 09h18.16.837520 +0530,
