trials.thisRepN,trials.thisTrialN,trials.thisN,trials.thisIndex,thisRow.t,notes,trial.started,num_distr,fixation.started,target.started,mouse.started,trial.stopped,mouse.x,mouse.y,mouse.leftButton,mouse.midButton,mouse.rightButton,mouse.time,mouse.clicked_name,participant,session,date,expName,psychopyVersion,frameRate,expStart,
0,0,0,0,0.14287930028513074,,0.05346530023962259,10,0.14287930028513074,0.14287930028513074,0.11740100011229515,16.76635210029781,[0.295],[0.25625],[1],[0],[0],[16.64773439988494],['target'],345078,001,2024-10-10_09h31.03.023,untitled,2024.1.5,None,2024-10-10 09h31.09.868849 +0530,
1,0,1,0,16.889256600290537,,16.788049099966884,10,16.889256600290537,16.889256600290537,0.06845800019800663,20.074377099983394,[-0.375],[-0.1025],[1],[0],[0],[3.220543500036001],['target'],345078,001,2024-10-10_09h31.03.023,untitled,2024.1.5,None,2024-10-10 09h31.09.868849 +0530,
2,0,2,0,20.13851060019806,,20.084362199995667,5,20.13851060019806,20.13851060019806,0.0331991002894938,23.057319900020957,[-0.47],[-0.33625],[1],[0],[0],[2.9412936996668577],['target'],345078,001,2024-10-10_09h31.03.023,untitled,2024.1.5,None,2024-10-10 09h31.09.868849 +0530,
3,0,3,0,23.171613300219178,,23.073099200148135,5,23.171613300219178,23.171613300219178,0.06979510001838207,32.70562760019675,[0.28375],[-0.19125],[1],[0],[0],[9.565067800227553],['target'],345078,001,2024-10-10_09h31.03.023,untitled,2024.1.5,None,2024-10-10 09h31.09.868849 +0530,
4,0,4,0,32.85216040024534,,32.71984150027856,10,32.85216040024534,32.85216040024534,0.11091160029172897,33.15337880002335,[0.28375],[-0.19125],[1],[0],[0],[0.3266594996675849],[],345078,001,2024-10-10_09h31.03.023,untitled,2024.1.5,None,2024-10-10 09h31.09.868849 +0530,
5,0,5,0,33.21900860033929,,33.161103000398725,5,33.21900860033929,33.21900860033929,0.028615199960768223,43.554523600265384,[0.26625],[-0.405],[1],[0],[0],[10.365274200215936],['target'],345078,001,2024-10-10_09h31.03.023,untitled,2024.1.5,None,2024-10-10 09h31.09.868849 +0530,
6,0,6,0,43.6662118001841,,43.56925060041249,10,43.6662118001841,43.6662118001841,0.07489660009741783,47.96714710025117,[0.47],[-0.25875],[1],[0],[0],[4.325253199785948],['target'],345078,001,2024-10-10_09h31.03.023,untitled,2024.1.5,None,2024-10-10 09h31.09.868849 +0530,
7,0,7,0,48.04903670027852,,47.97511470038444,5,48.04903670027852,48.04903670027852,0.038999099750071764,55.77174250036478,[0.35125],[0.2075],[1],[0],[0],[7.75794170005247],['target'],345078,001,2024-10-10_09h31.03.023,untitled,2024.1.5,None,2024-10-10 09h31.09.868849 +0530,
8,0,8,0,55.879939400125295,,55.786979800090194,10,55.879939400125295,55.879939400125295,0.07084080018103123,62.26386420009658,[-0.255],[-0.2525],[1],[0],[0],[6.408397600054741],['target'],345078,001,2024-10-10_09h31.03.023,untitled,2024.1.5,None,2024-10-10 09h31.09.868849 +0530,
9,0,9,0,62.34592410037294,,62.2721828003414,5,62.34592410037294,62.34592410037294,0.04127399995923042,70.29717760020867,[0.14625],[0.20875],[1],[0],[0],[7.984423900023103],['target'],345078,001,2024-10-10_09h31.03.023,untitled,2024.1.5,None,2024-10-10 09h31.09.868849 +0530,
10,0,10,0,70.44312930013984,,70.31087160017341,10,70.44312930013984,70.44312930013984,0.10213120002299547,87.34532790025696,[0.30625],[-0.29625],[1],[0],[0],[16.93562800018117],['target'],345078,001,2024-10-10_09h31.03.023,untitled,2024.1.5,None,2024-10-10 09h31.09.868849 +0530,
11,0,11,0,87.43890180019662,,87.36620220029727,5,87.43890180019662,87.43890180019662,0.0520987999625504,93.07502160035074,[0.345],[0.47625],[1],[0],[0],[5.659491000231355],['target'],345078,001,2024-10-10_09h31.03.023,untitled,2024.1.5,None,2024-10-10 09h31.09.868849 +0530,
12,0,12,0,93.20451840013266,,93.08879040041938,10,93.20451840013266,93.20451840013266,0.0811586999334395,101.10392420040444,[-0.275],[0.39875],[1],[0],[0],[7.936869500204921],['target'],345078,001,2024-10-10_09h31.03.023,untitled,2024.1.5,None,2024-10-10 09h31.09.868849 +0530,
13,0,13,0,101.20258729998022,,101.1116875000298,10,101.20258729998022,101.20258729998022,0.05525209987536073,107.95413140021265,[0.03875],[-0.14],[1],[0],[0],[6.788158599752933],['target'],345078,001,2024-10-10_09h31.03.023,untitled,2024.1.5,None,2024-10-10 09h31.09.868849 +0530,
14,0,14,0,108.06811210000888,,107.96218470018357,10,108.06811210000888,108.06811210000888,0.06672200001776218,112.17005510022864,[0.05875],[-0.18],[1],[0],[0],[4.141826099716127],['target'],345078,001,2024-10-10_09h31.03.023,untitled,2024.1.5,None,2024-10-10 09h31.09.868849 +0530,
15,0,15,0,112.2997635002248,,112.18195230001584,10,112.2997635002248,112.2997635002248,0.07934049982577562,120.93242250010371,[0.38875],[0.41],[1],[0],[0],[8.673962600063533],['target'],345078,001,2024-10-10_09h31.03.023,untitled,2024.1.5,None,2024-10-10 09h31.09.868849 +0530,
16,0,16,0,120.98090340010822,,120.93774300022051,5,120.98090340010822,120.98090340010822,0.02761760028079152,124.25054040038958,[0.19875],[0.3575],[1],[0],[0],[3.2853254000656307],['target'],345078,001,2024-10-10_09h31.03.023,untitled,2024.1.5,None,2024-10-10 09h31.09.868849 +0530,
17,0,17,0,124.34688020031899,,124.26526350015774,5,124.34688020031899,124.34688020031899,0.05035419994965196,132.21520510036498,[0.475],[-0.22],[1],[0],[0],[7.902971999719739],['target'],345078,001,2024-10-10_09h31.03.023,untitled,2024.1.5,None,2024-10-10 09h31.09.868849 +0530,
18,0,18,0,132.32836250029504,,132.23188420012593,5,132.32836250029504,132.32836250029504,0.06843339977785945,138.648561200127,[0.31625],[-0.475],[1],[0],[0],[6.352149900048971],['target'],345078,001,2024-10-10_09h31.03.023,untitled,2024.1.5,None,2024-10-10 09h31.09.868849 +0530,
19,0,19,0,138.76022810023278,,138.66431550029665,5,138.76022810023278,138.76022810023278,0.06534500000998378,146.46272440021858,[0.48375],[-0.3675],[1],[0],[0],[7.735408999957144],['target'],345078,001,2024-10-10_09h31.03.023,untitled,2024.1.5,None,2024-10-10 09h31.09.868849 +0530,
20,0,20,0,146.59152960032225,,146.47562170028687,10,146.59152960032225,146.59152960032225,0.08530389983206987,155.87509820004925,[-0.36],[0.09875],[1],[0],[0],[9.317114899866283],['target'],345078,001,2024-10-10_09h31.03.023,untitled,2024.1.5,None,2024-10-10 09h31.09.868849 +0530,
21,0,21,0,155.97248280001804,,155.88754890020937,10,155.97248280001804,155.97248280001804,0.06352389976382256,164.77337509999052,[-0.185],[-0.25],[1],[0],[0],[8.824957000091672],['target'],345078,001,2024-10-10_09h31.03.023,untitled,2024.1.5,None,2024-10-10 09h31.09.868849 +0530,
22,0,22,0,164.8370434003882,,164.78157950006425,5,164.8370434003882,164.8370434003882,0.040261799935251474,171.25602059997618,[0.1725],[0.2675],[1],[0],[0],[6.434796100016683],['target'],345078,001,2024-10-10_09h31.03.023,untitled,2024.1.5,None,2024-10-10 09h31.09.868849 +0530,
23,0,23,0,171.33540600026026,,171.2697755000554,5,171.33540600026026,171.33540600026026,0.04945370042696595,178.9876024001278,[-0.37125],[0.25],[1],[0],[0],[7.671807199716568],['target'],345078,001,2024-10-10_09h31.03.023,untitled,2024.1.5,None,2024-10-10 09h31.09.868849 +0530,
24,0,24,0,179.11699870042503,,179.00160429999232,10,179.11699870042503,179.11699870042503,0.08795460034161806,185.55512760020792,[0.3475],[-0.1125],[1],[0],[0],[6.468311499804258],['target'],345078,001,2024-10-10_09h31.03.023,untitled,2024.1.5,None,2024-10-10 09h31.09.868849 +0530,
25,0,25,0,185.66528960037977,,185.57562790019438,5,185.66528960037977,185.66528960037977,0.06889759982004762,189.65142830042168,[0.045],[-0.32375],[1],[0],[0],[4.009769099764526],['target'],345078,001,2024-10-10_09h31.03.023,untitled,2024.1.5,None,2024-10-10 09h31.09.868849 +0530,
26,0,26,0,189.78122360026464,,189.66837050020695,10,189.78122360026464,189.78122360026464,0.08227240014821291,195.46657020039856,[-0.24],[0.255],[1],[0],[0],[5.718628000002354],['target'],345078,001,2024-10-10_09h31.03.023,untitled,2024.1.5,None,2024-10-10 09h31.09.868849 +0530,
27,0,27,0,195.57980740023777,,195.48057250026613,10,195.57980740023777,195.57980740023777,0.07739389967173338,200.1313243000768,[0.0525],[-0.315],[1],[0],[0],[4.576993700116873],['target'],345078,001,2024-10-10_09h31.03.023,untitled,2024.1.5,None,2024-10-10 09h31.09.868849 +0530,
28,0,28,0,200.21227370016277,,200.1396574000828,5,200.21227370016277,200.21227370016277,0.042493300046771765,204.03301830030978,[-0.0775],[-0.47625],[1],[0],[0],[3.851507800165564],['target'],345078,001,2024-10-10_09h31.03.023,untitled,2024.1.5,None,2024-10-10 09h31.09.868849 +0530,
29,0,29,0,204.11160860024393,,204.04625820042565,5,204.11160860024393,204.11160860024393,0.04222790012136102,209.9314014003612,[-0.08125],[-0.0775],[1],[0],[0],[5.844499000348151],['target'],345078,001,2024-10-10_09h31.03.023,untitled,2024.1.5,None,2024-10-10 09h31.09.868849 +0530,
30,0,30,0,210.0266138999723,,209.94537380011752,5,210.0266138999723,210.0266138999723,0.05874309968203306,217.79322460014373,[-0.2625],[0.41875],[1],[0],[0],[7.791043899953365],['target'],345078,001,2024-10-10_09h31.03.023,untitled,2024.1.5,None,2024-10-10 09h31.09.868849 +0530,
31,0,31,0,217.89100010041147,,217.80060059996322,10,217.89100010041147,217.89100010041147,0.06709679961204529,223.8607968003489,[0.26125],[-0.2325],[1],[0],[0],[5.993901600129902],['target'],345078,001,2024-10-10_09h31.03.023,untitled,2024.1.5,None,2024-10-10 09h31.09.868849 +0530,
32,0,32,0,223.92302720015869,,223.8698292002082,5,223.92302720015869,223.92302720015869,0.03595410007983446,227.3930196003057,[0.1875],[-0.39125],[1],[0],[0],[3.4882813999429345],['target'],345078,001,2024-10-10_09h31.03.023,untitled,2024.1.5,None,2024-10-10 09h31.09.868849 +0530,
33,0,33,0,227.47215489996597,,227.40563870035112,5,227.47215489996597,227.47215489996597,0.045664899982512,233.99392790021375,[0.1575],[0.06125],[1],[0],[0],[6.545123300049454],['target'],345078,001,2024-10-10_09h31.03.023,untitled,2024.1.5,None,2024-10-10 09h31.09.868849 +0530,
34,0,34,0,234.12035960005596,,234.01367750018835,5,234.12035960005596,234.12035960005596,0.06895390013232827,240.40712080011144,[0.15],[-0.31875],[1],[0],[0],[6.327527100220323],['target'],345078,001,2024-10-10_09h31.03.023,untitled,2024.1.5,None,2024-10-10 09h31.09.868849 +0530,
35,0,35,0,240.50248849997297,,240.42196710035205,5,240.50248849997297,240.50248849997297,0.05996380001306534,244.52137130033225,[-0.00625],[-0.23625],[1],[0],[0],[4.041654400061816],['target'],345078,001,2024-10-10_09h31.03.023,untitled,2024.1.5,None,2024-10-10 09h31.09.868849 +0530,
36,0,36,0,244.60118400026113,,244.53194120014086,5,244.60118400026113,244.60118400026113,0.04394239978864789,251.50710660032928,[0.19875],[0.30125],[1],[0],[0],[6.932078999932855],['target'],345078,001,2024-10-10_09h31.03.023,untitled,2024.1.5,None,2024-10-10 09h31.09.868849 +0530,
37,0,37,0,251.64958900026977,,251.53394740028307,10,251.64958900026977,251.64958900026977,0.0817900002002716,262.9060305003077,[-0.26],[0.0525],[1],[0],[0],[11.294594299979508],['target'],345078,001,2024-10-10_09h31.03.023,untitled,2024.1.5,None,2024-10-10 09h31.09.868849 +0530,
38,0,38,0,263.12969270022586,,262.9321354003623,10,263.12969270022586,263.12969270022586,0.17674560006707907,267.38360390020534,[-0.30375],[0.36],[1],[0],[0],[4.279143699910492],['target'],345078,001,2024-10-10_09h31.03.023,untitled,2024.1.5,None,2024-10-10 09h31.09.868849 +0530,
39,0,39,0,267.46234670002013,,267.3992086001672,5,267.46234670002013,267.46234670002013,0.05032879998907447,273.79789560008794,[0.11625],[-0.34375],[1],[0],[0],[6.351061000023037],['target'],345078,001,2024-10-10_09h31.03.023,untitled,2024.1.5,None,2024-10-10 09h31.09.868849 +0530,
40,0,40,0,273.9112204001285,,273.8072275002487,10,273.9112204001285,273.9112204001285,0.07844190020114183,280.26283000037074,[-0.04125],[0.34375],[1],[0],[0],[6.377950599882752],['target'],345078,001,2024-10-10_09h31.03.023,untitled,2024.1.5,None,2024-10-10 09h31.09.868849 +0530,
41,0,41,0,280.3929981002584,,280.27870720019564,10,280.3929981002584,280.3929981002584,0.08886189991608262,284.8109257002361,[0.165],[-0.0375],[1],[0],[0],[4.446300699841231],['target'],345078,001,2024-10-10_09h31.03.023,untitled,2024.1.5,None,2024-10-10 09h31.09.868849 +0530,
42,0,42,0,284.94148100027815,,284.8199532004073,10,284.94148100027815,284.94148100027815,0.08539070002734661,290.14417810039595,[0.2075],[-0.04],[1],[0],[0],[5.239815600216389],['target'],345078,001,2024-10-10_09h31.03.023,untitled,2024.1.5,None,2024-10-10 09h31.09.868849 +0530,
43,0,43,0,290.2403686000034,,290.1573603004217,5,290.2403686000034,290.2403686000034,0.05679640034213662,295.2265475001186,[0.305],[-0.02375],[1],[0],[0],[5.014996099751443],['target'],345078,001,2024-10-10_09h31.03.023,untitled,2024.1.5,None,2024-10-10 09h31.09.868849 +0530,
44,0,44,0,295.30635099997744,,295.2401952999644,5,295.30635099997744,295.30635099997744,0.04490490024909377,300.05873600021005,[-0.16875],[-0.40125],[1],[0],[0],[4.776558300014585],['target'],345078,001,2024-10-10_09h31.03.023,untitled,2024.1.5,None,2024-10-10 09h31.09.868849 +0530,
45,0,45,0,300.1712416000664,,300.0745340003632,10,300.1712416000664,300.1712416000664,0.07274999981746078,304.90609140042216,[0.48625],[-0.44625],[1],[0],[0],[4.761462099850178],['target'],345078,001,2024-10-10_09h31.03.023,untitled,2024.1.5,None,2024-10-10 09h31.09.868849 +0530,
46,0,46,0,304.9701045001857,,304.91421370022,5,304.9701045001857,304.9701045001857,0.04075259994715452,312.2744175000116,[-0.385],[0.30125],[1],[0],[0],[7.31996180023998],['target'],345078,001,2024-10-10_09h31.03.023,untitled,2024.1.5,None,2024-10-10 09h31.09.868849 +0530,
47,0,47,0,312.38581920042634,,312.28776820003986,5,312.38581920042634,312.38581920042634,0.05820810003206134,320.0375824002549,[0.22125],[0.08625],[1],[0],[0],[7.693594699725509],['target'],345078,001,2024-10-10_09h31.03.023,untitled,2024.1.5,None,2024-10-10 09h31.09.868849 +0530,
48,0,48,0,320.1163910999894,,320.0533292000182,5,320.1163910999894,320.1163910999894,0.0469522001221776,334.13643319997936,[0.3325],[0.24375],[1],[0],[0],[14.038713799789548],['target'],345078,001,2024-10-10_09h31.03.023,untitled,2024.1.5,None,2024-10-10 09h31.09.868849 +0530,
49,0,49,0,334.2631079000421,,334.15738840028644,5,334.2631079000421,334.2631079000421,0.08063690038397908,342.298124700319,[-0.4475],[0.34125],[1],[0],[0],[8.062782800290734],['target'],345078,001,2024-10-10_09h31.03.023,untitled,2024.1.5,None,2024-10-10 09h31.09.868849 +0530,
50,0,50,0,342.41108950041234,,342.3122235001065,5,342.41108950041234,342.41108950041234,0.062008900102227926,348.59617240028456,[0.295],[-0.2175],[1],[0],[0],[6.225116199813783],['target'],345078,001,2024-10-10_09h31.03.023,untitled,2024.1.5,None,2024-10-10 09h31.09.868849 +0530,
51,0,51,0,348.7093363003805,,348.6096159000881,5,348.7093363003805,348.7093363003805,0.06043809978291392,355.16124160028994,[0.1575],[0.375],[1],[0],[0],[6.494329200126231],['target'],345078,001,2024-10-10_09h31.03.023,untitled,2024.1.5,None,2024-10-10 09h31.09.868849 +0530,
52,0,52,0,355.29135400010273,,355.1747538000345,10,355.29135400010273,355.29135400010273,0.07966360030695796,362.02872369997203,[0.26625],[0.29625],[1],[0],[0],[6.777083199936897],['target'],345078,001,2024-10-10_09h31.03.023,untitled,2024.1.5,None,2024-10-10 09h31.09.868849 +0530,
53,0,53,0,362.1229008999653,,362.0461989999749,5,362.1229008999653,362.1229008999653,0.054545000195503235,369.1939356001094,[-0.38875],[0.2325],[1],[0],[0],[7.095465200021863],['target'],345078,001,2024-10-10_09h31.03.023,untitled,2024.1.5,None,2024-10-10 09h31.09.868849 +0530,
54,0,54,0,369.3209403003566,,369.213741700165,5,369.3209403003566,369.3209403003566,0.06672320002689958,376.00876029999927,[0.29125],[0.155],[1],[0],[0],[6.731472100131214],['target'],345078,001,2024-10-10_09h31.03.023,untitled,2024.1.5,None,2024-10-10 09h31.09.868849 +0530,
55,0,55,0,376.1197824003175,,376.02193489996716,10,376.1197824003175,376.1197824003175,0.07463750010356307,383.70413220021874,[0.43625],[0.45875],[1],[0],[0],[7.609320300165564],['target'],345078,001,2024-10-10_09h31.03.023,untitled,2024.1.5,None,2024-10-10 09h31.09.868849 +0530,
56,0,56,0,383.8181659001857,,383.71673110034317,10,383.8181659001857,383.8181659001857,0.07522170012816787,387.2923751999624,[0.48875],[0.23125],[1],[0],[0],[3.502933300100267],['target'],345078,001,2024-10-10_09h31.03.023,untitled,2024.1.5,None,2024-10-10 09h31.09.868849 +0530,
57,0,57,0,387.40019490011036,,387.3251841003075,5,387.40019490011036,387.40019490011036,0.05581430019810796,392.66973920026794,[0.20875],[0.2725],[1],[0],[0],[5.294861699920148],['target'],345078,001,2024-10-10_09h31.03.023,untitled,2024.1.5,None,2024-10-10 09h31.09.868849 +0530,
58,0,58,0,392.7825919999741,,392.68347260029987,5,392.7825919999741,392.7825919999741,0.06107569998130202,396.5855254000053,[0.37625],[0.12875],[1],[0],[0],[3.844285999890417],['target'],345078,001,2024-10-10_09h31.03.023,untitled,2024.1.5,None,2024-10-10 09h31.09.868849 +0530,
59,0,59,0,396.7146384003572,,396.602687000297,10,396.7146384003572,396.7146384003572,0.07701310003176332,400.3990935003385,[0.35],[-0.08375],[1],[0],[0],[3.7222290001809597],['target'],345078,001,2024-10-10_09h31.03.023,untitled,2024.1.5,None,2024-10-10 09h31.09.868849 +0530,
60,0,60,0,400.5304648000747,,400.40999140031636,10,400.5304648000747,400.5304648000747,0.07942490000277758,404.6988981002942,[0.365],[-0.45125],[1],[0],[0],[4.210942400153726],['target'],345078,001,2024-10-10_09h31.03.023,untitled,2024.1.5,None,2024-10-10 09h31.09.868849 +0530,
61,0,61,0,404.8125630002469,,404.7095886999741,5,404.8125630002469,404.8125630002469,0.0674593998119235,409.7501660003327,[0.34375],[0.05],[1],[0],[0],[4.974437800236046],['target'],345078,001,2024-10-10_09h31.03.023,untitled,2024.1.5,None,2024-10-10 09h31.09.868849 +0530,
62,0,62,0,409.8796904999763,,409.77131210034713,10,409.8796904999763,409.8796904999763,0.07381760003045201,413.5482564000413,[-0.4125],[-0.2075],[1],[0],[0],[3.7043504999019206],['target'],345078,001,2024-10-10_09h31.03.023,untitled,2024.1.5,None,2024-10-10 09h31.09.868849 +0530,
63,0,63,0,413.66047190036625,,413.56452450016513,5,413.66047190036625,413.66047190036625,0.06301619997248054,417.58008420001715,[-0.26625],[0.08],[1],[0],[0],[3.9557696003466845],['target'],345078,001,2024-10-10_09h31.03.023,untitled,2024.1.5,None,2024-10-10 09h31.09.868849 +0530,
64,0,64,0,417.70959500037134,,417.59696590015665,10,417.70959500037134,417.70959500037134,0.08608200028538704,423.8454038002528,[0.445],[0.32],[1],[0],[0],[6.164750299882144],['target'],345078,001,2024-10-10_09h31.03.023,untitled,2024.1.5,None,2024-10-10 09h31.09.868849 +0530,
65,0,65,0,423.9249123004265,,423.8577425000258,5,423.9249123004265,423.9249123004265,0.05174909997731447,431.2643473003991,[0.11],[-0.30875],[1],[0],[0],[7.357002700213343],['target'],345078,001,2024-10-10_09h31.03.023,untitled,2024.1.5,None,2024-10-10 09h31.09.868849 +0530,
66,0,66,0,431.38953370042145,,431.2806500000879,5,431.38953370042145,431.38953370042145,0.06565839983522892,435.14848600002006,[-0.4025],[-0.07125],[1],[0],[0],[3.8033480001613498],['target'],345078,001,2024-10-10_09h31.03.023,untitled,2024.1.5,None,2024-10-10 09h31.09.868849 +0530,
67,0,67,0,435.27222630009055,,435.174689500127,5,435.27222630009055,435.27222630009055,0.06969800032675266,442.04257650021464,[0.49625],[0.37],[1],[0],[0],[6.802193699870259],['target'],345078,001,2024-10-10_09h31.03.023,untitled,2024.1.5,None,2024-10-10 09h31.09.868849 +0530,
68,0,68,0,442.17026180028915,,442.0592373004183,10,442.17026180028915,442.17026180028915,0.07375690015032887,448.2929348000325,[-0.48375],[-0.035],[1],[0],[0],[6.162098899949342],['target'],345078,001,2024-10-10_09h31.03.023,untitled,2024.1.5,None,2024-10-10 09h31.09.868849 +0530,
69,0,69,0,448.41872850013897,,448.31998930033296,5,448.41872850013897,448.41872850013897,0.08267660019919276,452.5418604002334,[-0.45125],[0.055],[1],[0],[0],[4.143709099851549],[],345078,001,2024-10-10_09h31.03.023,untitled,2024.1.5,None,2024-10-10 09h31.09.868849 +0530,
70,0,70,0,452.63466280000284,,452.5582189001143,5,452.63466280000284,452.63466280000284,0.04727749992161989,459.23612940032035,[-0.09625],[-0.36875],[1],[0],[0],[6.6324645997956395],['target'],345078,001,2024-10-10_09h31.03.023,untitled,2024.1.5,None,2024-10-10 09h31.09.868849 +0530,
71,0,71,0,459.36650560004637,,459.25041110021994,10,459.36650560004637,459.36650560004637,0.09045220026746392,466.4374436000362,[-0.4575],[0.06625],[1],[0],[0],[7.099546800367534],['target'],345078,001,2024-10-10_09h31.03.023,untitled,2024.1.5,None,2024-10-10 09h31.09.868849 +0530,
72,0,72,0,466.56470680003986,,466.45816470030695,10,466.56470680003986,466.56470680003986,0.07926939986646175,470.3834433001466,[-0.3975],[-0.40875],[1],[0],[0],[3.849740299861878],['target'],345078,001,2024-10-10_09h31.03.023,untitled,2024.1.5,None,2024-10-10 09h31.09.868849 +0530,
73,0,73,0,470.4968667002395,,470.39230090007186,10,470.4968667002395,470.4968667002395,0.0659743002615869,475.51548810023814,[0.3175],[0.29625],[1],[0],[0],[5.058359900023788],['target'],345078,001,2024-10-10_09h31.03.023,untitled,2024.1.5,None,2024-10-10 09h31.09.868849 +0530,
74,0,74,0,475.5956326001324,,475.5242774002254,5,475.5956326001324,475.5956326001324,0.04174289992079139,482.16588650038466,[0.2575],[0.15375],[1],[0],[0],[6.60080000013113],['target'],345078,001,2024-10-10_09h31.03.023,untitled,2024.1.5,None,2024-10-10 09h31.09.868849 +0530,
75,0,75,0,482.2774151000194,,482.1793871000409,10,482.2774151000194,482.2774151000194,0.06760929990559816,487.06298790033907,[-0.27],[-0.25625],[1],[0],[0],[4.817822800017893],['target'],345078,001,2024-10-10_09h31.03.023,untitled,2024.1.5,None,2024-10-10 09h31.09.868849 +0530,
76,0,76,0,487.14304320001975,,487.0763765000738,5,487.14304320001975,487.14304320001975,0.050575099885463715,490.76324300002307,[-0.145],[0.16125],[1],[0],[0],[3.639494000002742],['target'],345078,001,2024-10-10_09h31.03.023,untitled,2024.1.5,None,2024-10-10 09h31.09.868849 +0530,
77,0,77,0,490.9086439004168,,490.7802674002014,10,490.9086439004168,490.9086439004168,0.10569609981030226,502.5135193001479,[0.4275],[-0.3025],[1],[0],[0],[11.629722400102764],['target'],345078,001,2024-10-10_09h31.03.023,untitled,2024.1.5,None,2024-10-10 09h31.09.868849 +0530,
78,0,78,0,502.6557952002622,,502.54089850001037,10,502.6557952002622,502.6557952002622,0.0916125001385808,510.07583730015904,[-0.07625],[0.31625],[1],[0],[0],[7.448266800027341],['target'],345078,001,2024-10-10_09h31.03.023,untitled,2024.1.5,None,2024-10-10 09h31.09.868849 +0530,
79,0,79,0,510.220861800015,,510.09097790019587,10,510.220861800015,510.220861800015,0.09531860006973147,514.4397365003824,[-0.21875],[-0.34625],[1],[0],[0],[4.255775499623269],['target'],345078,001,2024-10-10_09h31.03.023,untitled,2024.1.5,None,2024-10-10 09h31.09.868849 +0530,
80,0,80,0,514.520168100018,,514.449203400407,5,514.520168100018,514.520168100018,0.04548089997842908,516.9236718001775,[-0.1775],[-0.4],[1],[0],[0],[2.4303235998377204],['target'],345078,001,2024-10-10_09h31.03.023,untitled,2024.1.5,None,2024-10-10 09h31.09.868849 +0530,
81,0,81,0,517.0187703003176,,516.9371357001364,5,517.0187703003176,517.0187703003176,0.05956330010667443,522.9548176000826,[-0.47625],[-0.345],[1],[0],[0],[5.960879600141197],['target'],345078,001,2024-10-10_09h31.03.023,untitled,2024.1.5,None,2024-10-10 09h31.09.868849 +0530,
82,0,82,0,523.1008562999777,,522.9682567003183,10,523.1008562999777,523.1008562999777,0.10126510029658675,537.3851458001882,[-0.175],[0.4475],[1],[0],[0],[14.318806400056928],['target'],345078,001,2024-10-10_09h31.03.023,untitled,2024.1.5,None,2024-10-10 09h31.09.868849 +0530,
83,0,83,0,537.4973397003487,,537.4004466002807,5,537.4973397003487,537.4973397003487,0.06682890001684427,542.0839820001274,[-0.22875],[-0.44875],[1],[0],[0],[4.618732499890029],['target'],345078,001,2024-10-10_09h31.03.023,untitled,2024.1.5,None,2024-10-10 09h31.09.868849 +0530,
84,0,84,0,542.1631230004132,,542.0973478001542,5,542.1631230004132,542.1631230004132,0.04958980018272996,554.096942299977,[-0.1675],[0.4625],[1],[0],[0],[11.952340399846435],['target'],345078,001,2024-10-10_09h31.03.023,untitled,2024.1.5,None,2024-10-10 09h31.09.868849 +0530,
85,0,85,0,554.2272356003523,,554.1103803999722,10,554.2272356003523,554.2272356003523,0.0799664999358356,560.4005670002662,[-0.265],[-0.3875],[1],[0],[0],[6.211727499961853],['target'],345078,001,2024-10-10_09h31.03.023,untitled,2024.1.5,None,2024-10-10 09h31.09.868849 +0530,
86,0,86,0,560.4919309001416,,560.4316283003427,5,560.4919309001416,560.4919309001416,0.03619010001420975,564.5113109000959,[0.03875],[0.3925],[1],[0],[0],[4.047515299636871],['target'],345078,001,2024-10-10_09h31.03.023,untitled,2024.1.5,None,2024-10-10 09h31.09.868849 +0530,
87,0,87,0,564.6106794001535,,564.5246562999673,5,564.6106794001535,564.6106794001535,0.055726100225001574,567.8273496003821,[0.14875],[0.36125],[1],[0],[0],[3.250197300221771],['target'],345078,001,2024-10-10_09h31.03.023,untitled,2024.1.5,None,2024-10-10 09h31.09.868849 +0530,
88,0,88,0,567.9237880003639,,567.8433893001638,5,567.9237880003639,567.9237880003639,0.05095979990437627,571.4258856000379,[-0.175],[-0.33125],[1],[0],[0],[3.53381559997797],['target'],345078,001,2024-10-10_09h31.03.023,untitled,2024.1.5,None,2024-10-10 09h31.09.868849 +0530,
89,0,89,0,571.5560728004202,,571.4420060003176,10,571.5560728004202,571.5560728004202,0.08428440010175109,575.6464561000466,[-0.29125],[-0.20125],[1],[0],[0],[4.120831099804491],['target'],345078,001,2024-10-10_09h31.03.023,untitled,2024.1.5,None,2024-10-10 09h31.09.868849 +0530,
90,0,90,0,575.8217211002484,,575.6738732000813,10,575.8217211002484,575.8217211002484,0.11434580013155937,579.2244614004157,[-0.3625],[0.22875],[1],[0],[0],[3.44171110028401],['target'],345078,001,2024-10-10_09h31.03.023,untitled,2024.1.5,None,2024-10-10 09h31.09.868849 +0530,
91,0,91,0,579.2872383003123,,579.2331886002794,5,579.2872383003123,579.2872383003123,0.04021159978583455,586.0732055003755,[-0.2125],[-0.48875],[1],[0],[0],[6.800827900413424],['target'],345078,001,2024-10-10_09h31.03.023,untitled,2024.1.5,None,2024-10-10 09h31.09.868849 +0530,
92,0,92,0,586.2189564001746,,586.0860782000236,10,586.2189564001746,586.2189564001746,0.09834419982507825,589.9729003002867,[-0.26],[-0.095],[1],[0],[0],[3.7911026002839208],['target'],345078,001,2024-10-10_09h31.03.023,untitled,2024.1.5,None,2024-10-10 09h31.09.868849 +0530,
93,0,93,0,590.0516230002977,,589.9817198002711,5,590.0516230002977,590.0516230002977,0.04040710022673011,597.3709879000671,[-0.08875],[0.38],[1],[0],[0],[7.349768299609423],['target'],345078,001,2024-10-10_09h31.03.023,untitled,2024.1.5,None,2024-10-10 09h31.09.868849 +0530,
94,0,94,0,597.4995944001712,,597.3855988001451,10,597.4995944001712,597.4995944001712,0.08226749999448657,601.8523640003987,[0.39125],[0.10875],[1],[0],[0],[4.3871458997018635],['target'],345078,001,2024-10-10_09h31.03.023,untitled,2024.1.5,None,2024-10-10 09h31.09.868849 +0530,
95,0,95,0,601.9817751999944,,601.8610737002455,10,601.9817751999944,601.9817751999944,0.07834680005908012,606.7849818002433,[-0.325],[0.41375],[1],[0],[0],[4.846392000094056],['target'],345078,001,2024-10-10_09h31.03.023,untitled,2024.1.5,None,2024-10-10 09h31.09.868849 +0530,
96,0,96,0,606.8973513999954,,606.7972400002182,10,606.8973513999954,606.8973513999954,0.06452900031581521,610.5488996002823,[-0.04],[0.36875],[1],[0],[0],[3.689976000227034],['target'],345078,001,2024-10-10_09h31.03.023,untitled,2024.1.5,None,2024-10-10 09h31.09.868849 +0530,
97,0,97,0,610.6131832003593,,610.5569849000312,5,610.6131832003593,610.6131832003593,0.03855539998039603,614.1661892002448,[-0.1775],[-0.3],[1],[0],[0],[3.5715421000495553],['target'],345078,001,2024-10-10_09h31.03.023,untitled,2024.1.5,None,2024-10-10 09h31.09.868849 +0530,
98,0,98,0,614.2956119002774,,614.1816215002909,10,614.2956119002774,614.2956119002774,0.08429899998009205,625.0305509003811,[-0.0375],[-0.46625],[1],[0],[0],[10.76611170032993],['target'],345078,001,2024-10-10_09h31.03.023,untitled,2024.1.5,None,2024-10-10 09h31.09.868849 +0530,
99,0,99,0,625.1764992000535,,625.0460630999878,10,625.1764992000535,625.1764992000535,0.10658239992335439,630.1783731002361,[-0.35875],[0.02875],[1],[0],[0],[5.028025500010699],['target'],345078,001,2024-10-10_09h31.03.023,untitled,2024.1.5,None,2024-10-10 09h31.09.868849 +0530,
100,0,100,0,630.2416517999955,,630.1873755003326,5,630.2416517999955,630.2416517999955,0.03520740009844303,636.2441903003491,[0.315],[0.36375],[1],[0],[0],[6.022526199929416],['target'],345078,001,2024-10-10_09h31.03.023,untitled,2024.1.5,None,2024-10-10 09h31.09.868849 +0530,
101,0,101,0,636.3239208003506,,636.2575586000457,5,636.3239208003506,636.3239208003506,0.043371499981731176,640.9929051003419,[0.3525],[-0.32125],[1],[0],[0],[4.69540929980576],['target'],345078,001,2024-10-10_09h31.03.023,untitled,2024.1.5,None,2024-10-10 09h31.09.868849 +0530,
102,0,102,0,641.1063161999919,,641.0065448000096,10,641.1063161999919,641.1063161999919,0.07804940035566688,644.1576355001889,[0.13],[-0.00625],[1],[0],[0],[3.0757543998770416],['target'],345078,001,2024-10-10_09h31.03.023,untitled,2024.1.5,None,2024-10-10 09h31.09.868849 +0530,
103,0,103,0,644.2885787002742,,644.1664962000214,10,644.2885787002742,644.2885787002742,0.08574160002171993,651.6437226003036,[0.46875],[-0.09125],[1],[0],[0],[7.391966399736702],['target'],345078,001,2024-10-10_09h31.03.023,untitled,2024.1.5,None,2024-10-10 09h31.09.868849 +0530,
104,0,104,0,651.8043560003862,,651.6700891000219,10,651.8043560003862,651.8043560003862,0.09982510004192591,655.256785500329,[0.44],[-0.3575],[1],[0],[0],[3.492002399638295],['target'],345078,001,2024-10-10_09h31.03.023,untitled,2024.1.5,None,2024-10-10 09h31.09.868849 +0530,
105,0,105,0,655.3692401000299,,655.2652987004258,10,655.3692401000299,655.3692401000299,0.07142029982060194,659.7553769000806,[-0.29125],[-0.37375],[1],[0],[0],[4.419512799941003],['target'],345078,001,2024-10-10_09h31.03.023,untitled,2024.1.5,None,2024-10-10 09h31.09.868849 +0530,
106,0,106,0,659.867968400009,,659.769472300075,10,659.867968400009,659.867968400009,0.06138619966804981,662.7867229003459,[-0.31875],[-0.06875],[1],[0],[0],[2.9571239999495447],['target'],345078,001,2024-10-10_09h31.03.023,untitled,2024.1.5,None,2024-10-10 09h31.09.868849 +0530,
107,0,107,0,662.9508785000071,,662.8107970003039,10,662.9508785000071,662.9508785000071,0.11578809982165694,666.0856600999832,[-0.2175],[-0.055],[1],[0],[0],[3.1630410002544522],['target'],345078,001,2024-10-10_09h31.03.023,untitled,2024.1.5,None,2024-10-10 09h31.09.868849 +0530,
108,0,108,0,666.166432400234,,666.09402530035,5,666.166432400234,666.166432400234,0.04146620025858283,670.5536581003107,[0.1625],[0.35625],[1],[0],[0],[4.419180900324136],['target'],345078,001,2024-10-10_09h31.03.023,untitled,2024.1.5,None,2024-10-10 09h31.09.868849 +0530,
109,0,109,0,670.6986013003625,,670.5683573000133,10,670.6986013003625,670.6986013003625,0.09002740029245615,676.0676773004234,[-0.315],[0.33125],[1],[0],[0],[5.412027399986982],['target'],345078,001,2024-10-10_09h31.03.023,untitled,2024.1.5,None,2024-10-10 09h31.09.868849 +0530,
110,0,110,0,676.1480609001592,,676.0800875001587,5,676.1480609001592,676.1480609001592,0.04530239989981055,680.3670499003492,[0.10875],[0.03375],[1],[0],[0],[4.244568299967796],['target'],345078,001,2024-10-10_09h31.03.023,untitled,2024.1.5,None,2024-10-10 09h31.09.868849 +0530,
111,0,111,0,680.4963579000905,,680.3811608003452,10,680.4963579000905,680.4963579000905,0.08996219979599118,685.914972900413,[-0.25875],[-0.35125],[1],[0],[0],[5.44729769974947],['target'],345078,001,2024-10-10_09h31.03.023,untitled,2024.1.5,None,2024-10-10 09h31.09.868849 +0530,
112,0,112,0,686.044862900395,,685.9270984004252,10,686.044862900395,686.044862900395,0.08166760019958019,690.6292204000056,[0.3025],[0.3675],[1],[0],[0],[4.623849099967629],['target'],345078,001,2024-10-10_09h31.03.023,untitled,2024.1.5,None,2024-10-10 09h31.09.868849 +0530,
113,0,113,0,690.7434339001775,,690.6364221000113,10,690.7434339001775,690.7434339001775,0.06573399994522333,696.8460697000846,[0.13],[-0.3275],[1],[0],[0],[6.145080899819732],['target'],345078,001,2024-10-10_09h31.03.023,untitled,2024.1.5,None,2024-10-10 09h31.09.868849 +0530,
114,0,114,0,696.9590050000697,,696.8581247003749,10,696.9590050000697,696.9590050000697,0.07876060018315911,701.7158297002316,[0.40125],[0.25875],[1],[0],[0],[4.781193899922073],['target'],345078,001,2024-10-10_09h31.03.023,untitled,2024.1.5,None,2024-10-10 09h31.09.868849 +0530,
115,0,115,0,701.8580979001708,,701.737544100266,5,701.8580979001708,701.8580979001708,0.09703500010073185,705.6944703003392,[0.395],[0.01625],[1],[0],[0],[3.8631623000837862],['target'],345078,001,2024-10-10_09h31.03.023,untitled,2024.1.5,None,2024-10-10 09h31.09.868849 +0530,
116,0,116,0,705.8402408002876,,705.7076125000603,10,705.8402408002876,705.8402408002876,0.10350310010835528,714.3071102001704,[-0.3],[0.2125],[1],[0],[0],[8.499025899916887],['target'],345078,001,2024-10-10_09h31.03.023,untitled,2024.1.5,None,2024-10-10 09h31.09.868849 +0530,
117,0,117,0,714.3885533004068,,714.315399300307,5,714.3885533004068,714.3885533004068,0.04069099994376302,720.039972900413,[0.24125],[0.195],[1],[0],[0],[5.684657599776983],['target'],345078,001,2024-10-10_09h31.03.023,untitled,2024.1.5,None,2024-10-10 09h31.09.868849 +0530,
118,0,118,0,720.1201659003273,,720.0490953000262,5,720.1201659003273,720.1201659003273,0.04293290013447404,724.4233584003523,[-0.15875],[-0.4375],[1],[0],[0],[4.332295600324869],['target'],345078,001,2024-10-10_09h31.03.023,untitled,2024.1.5,None,2024-10-10 09h31.09.868849 +0530,
119,0,119,0,724.5527107003145,,724.43615470035,10,724.5527107003145,724.5527107003145,0.08943230006843805,729.7044389001094,[-0.30375],[-0.1275],[1],[0],[0],[5.181243400089443],['target'],345078,001,2024-10-10_09h31.03.023,untitled,2024.1.5,None,2024-10-10 09h31.09.868849 +0530,
120,0,120,0,729.7851280001923,,729.7124342001043,5,729.7851280001923,729.7851280001923,0.047700800001621246,735.6743327002041,[0.3875],[0.1975],[1],[0],[0],[5.914685399737209],['target'],345078,001,2024-10-10_09h31.03.023,untitled,2024.1.5,None,2024-10-10 09h31.09.868849 +0530,
121,0,121,0,735.8165673003532,,735.6900762002915,10,735.8165673003532,735.8165673003532,0.1014992999844253,743.1849231002852,[0.1675],[-0.19625],[1],[0],[0],[7.395450199954212],['target'],345078,001,2024-10-10_09h31.03.023,untitled,2024.1.5,None,2024-10-10 09h31.09.868849 +0530,
122,0,122,0,743.2812211001292,,743.1942269001156,10,743.2812211001292,743.2812211001292,0.060954099986702204,748.3707048003562,[-0.4125],[-0.40125],[1],[0],[0],[5.115989500191063],['target'],345078,001,2024-10-10_09h31.03.023,untitled,2024.1.5,None,2024-10-10 09h31.09.868849 +0530,
123,0,123,0,748.4632702004164,,748.3961738003418,5,748.4632702004164,748.4632702004164,0.05766140017658472,752.9331330000423,[0.14875],[0.15],[1],[0],[0],[4.484947300050408],['target'],345078,001,2024-10-10_09h31.03.023,untitled,2024.1.5,None,2024-10-10 09h31.09.868849 +0530,
124,0,124,0,753.0453992001712,,752.9474313003011,5,753.0453992001712,753.0453992001712,0.057569900061935186,758.1814828002825,[0.39625],[-0.37625],[1],[0],[0],[5.1791248000226915],['target'],345078,001,2024-10-10_09h31.03.023,untitled,2024.1.5,None,2024-10-10 09h31.09.868849 +0530,
125,0,125,0,758.3278200002387,,758.1970835002139,10,758.3278200002387,758.3278200002387,0.0894582998007536,767.9615404000506,[0.0675],[0.39125],[1],[0],[0],[9.677664400078356],['target'],345078,001,2024-10-10_09h31.03.023,untitled,2024.1.5,None,2024-10-10 09h31.09.868849 +0530,
126,0,126,0,768.0753258001059,,767.9703164002858,10,768.0753258001059,768.0753258001059,0.06581849977374077,776.1780783003196,[0.49375],[0.05625],[1],[0],[0],[8.142652499955148],['target'],345078,001,2024-10-10_09h31.03.023,untitled,2024.1.5,None,2024-10-10 09h31.09.868849 +0530,
127,0,127,0,776.2733556004241,,776.1927261003293,5,776.2733556004241,776.2733556004241,0.04960349993780255,780.8432063004002,[-0.34375],[-0.30625],[1],[0],[0],[4.602854500059038],['target'],345078,001,2024-10-10_09h31.03.023,untitled,2024.1.5,None,2024-10-10 09h31.09.868849 +0530,
128,0,128,0,780.9222260001116,,780.8551234002225,5,780.9222260001116,780.9222260001116,0.03946720017120242,785.4579406999983,[0.3275],[0.46125],[1],[0],[0],[4.565773400012404],['target'],345078,001,2024-10-10_09h31.03.023,untitled,2024.1.5,None,2024-10-10 09h31.09.868849 +0530,
129,0,129,0,785.5709923002869,,785.4757471000776,10,785.5709923002869,785.5709923002869,0.07049919990822673,791.5726108001545,[0.25375],[0.4675],[1],[0],[0],[6.029194000177085],['target'],345078,001,2024-10-10_09h31.03.023,untitled,2024.1.5,None,2024-10-10 09h31.09.868849 +0530,
130,0,130,0,791.6861425000243,,791.5815367000178,10,791.6861425000243,791.6861425000243,0.0758946998976171,798.5872804000974,[0.26625],[-0.07125],[1],[0],[0],[6.931131400167942],['target'],345078,001,2024-10-10_09h31.03.023,untitled,2024.1.5,None,2024-10-10 09h31.09.868849 +0530,
131,0,131,0,798.6511309002526,,798.5952384001575,5,798.6511309002526,798.6511309002526,0.040128299966454506,804.1391341001727,[0.1275],[-0.485],[1],[0],[0],[5.504419199656695],['target'],345078,001,2024-10-10_09h31.03.023,untitled,2024.1.5,None,2024-10-10 09h31.09.868849 +0530,
132,0,132,0,804.233183500357,,804.1544063002802,5,804.233183500357,804.233183500357,0.04869040008634329,807.919777400326,[0.09625],[-0.02125],[1],[0],[0],[3.718575700186193],['target'],345078,001,2024-10-10_09h31.03.023,untitled,2024.1.5,None,2024-10-10 09h31.09.868849 +0530,
133,0,133,0,807.9993620002642,,807.9335306002758,5,807.9993620002642,807.9993620002642,0.046583099756389856,813.0539603000507,[-0.06],[0.4175],[1],[0],[0],[5.077045399695635],['target'],345078,001,2024-10-10_09h31.03.023,untitled,2024.1.5,None,2024-10-10 09h31.09.868849 +0530,
134,0,134,0,813.1979108001105,,813.0683799004182,10,813.1979108001105,813.1979108001105,0.09030079981312156,821.8837056001648,[0.29625],[0.445],[1],[0],[0],[8.726743799634278],[],345078,001,2024-10-10_09h31.03.023,untitled,2024.1.5,None,2024-10-10 09h31.09.868849 +0530,
135,0,135,0,821.9461516002193,,821.8930840999819,5,821.9461516002193,821.9461516002193,0.03580359974876046,828.4328565001488,[0.16],[-0.11],[1],[0],[0],[6.504973399918526],['target'],345078,001,2024-10-10_09h31.03.023,untitled,2024.1.5,None,2024-10-10 09h31.09.868849 +0530,
136,0,136,0,828.560706899967,,828.4502261001617,10,828.560706899967,828.560706899967,0.07723890012130141,839.277665800415,[0.1425],[0.11],[1],[0],[0],[10.75275620026514],['target'],345078,001,2024-10-10_09h31.03.023,untitled,2024.1.5,None,2024-10-10 09h31.09.868849 +0530,
137,0,137,0,839.341421500314,,839.2885334002785,5,839.341421500314,839.341421500314,0.03642550017684698,848.428564700298,[-0.45375],[0.4575],[1],[0],[0],[9.10506370011717],[],345078,001,2024-10-10_09h31.03.023,untitled,2024.1.5,None,2024-10-10 09h31.09.868849 +0530,
138,0,138,0,848.5397451003082,,848.4473455999978,5,848.5397451003082,848.5397451003082,0.05920999962836504,854.4910149001516,[0.22875],[-0.38],[1],[0],[0],[5.9873151001520455],['target'],345078,001,2024-10-10_09h31.03.023,untitled,2024.1.5,None,2024-10-10 09h31.09.868849 +0530,
139,0,139,0,854.5880647003651,,854.503525600303,5,854.5880647003651,854.5880647003651,0.05742680002003908,860.989955200348,[0.41625],[0.04375],[1],[0],[0],[6.43141009984538],['target'],345078,001,2024-10-10_09h31.03.023,untitled,2024.1.5,None,2024-10-10 09h31.09.868849 +0530,
140,0,140,0,861.1363836000673,,861.002531000413,10,861.1363836000673,861.1363836000673,0.10244589997455478,865.1536437002942,[0.13125],[-0.41125],[1],[0],[0],[4.0518785999156535],['target'],345078,001,2024-10-10_09h31.03.023,untitled,2024.1.5,None,2024-10-10 09h31.09.868849 +0530,
141,0,141,0,865.2185589000583,,865.1604202999733,5,865.2185589000583,865.2185589000583,0.033401299733668566,869.7381445001811,[0.215],[-0.18375],[1],[0],[0],[4.544940699823201],['target'],345078,001,2024-10-10_09h31.03.023,untitled,2024.1.5,None,2024-10-10 09h31.09.868849 +0530,
142,0,142,0,869.9009103002027,,869.7645987002179,10,869.9009103002027,869.9009103002027,0.10371729964390397,875.7540476000868,[0.4375],[0.49375],[1],[0],[0],[5.891006499994546],['target'],345078,001,2024-10-10_09h31.03.023,untitled,2024.1.5,None,2024-10-10 09h31.09.868849 +0530,
143,0,143,0,875.833515400067,,875.764765500091,5,875.833515400067,875.833515400067,0.04241500003263354,879.8697367999703,[-0.2625],[0.19375],[1],[0],[0],[4.064290000125766],['target'],345078,001,2024-10-10_09h31.03.023,untitled,2024.1.5,None,2024-10-10 09h31.09.868849 +0530,
144,0,144,0,879.99888750026,,879.8850756003521,10,879.99888750026,879.99888750026,0.07957439962774515,882.9723936002702,[-0.17],[-0.04375],[1],[0],[0],[3.008806500118226],['target'],345078,001,2024-10-10_09h31.03.023,untitled,2024.1.5,None,2024-10-10 09h31.09.868849 +0530,
145,0,145,0,883.1141493003815,,883.0031340001151,10,883.1141493003815,883.1141493003815,0.07982670003548265,887.6882103001699,[-0.09],[-0.4675],[1],[0],[0],[4.608552800025791],['target'],345078,001,2024-10-10_09h31.03.023,untitled,2024.1.5,None,2024-10-10 09h31.09.868849 +0530,
146,0,146,0,887.8300881003961,,887.7060597003438,10,887.8300881003961,887.8300881003961,0.09739790018647909,891.7734671002254,[0.115],[0.19375],[1],[0],[0],[3.971903200261295],['target'],345078,001,2024-10-10_09h31.03.023,untitled,2024.1.5,None,2024-10-10 09h31.09.868849 +0530,
147,0,147,0,891.8621570002288,,891.7993467999622,5,891.8621570002288,891.8621570002288,0.04310220014303923,895.6151335001923,[-0.12875],[0.41875],[1],[0],[0],[3.7759136999957263],['target'],345078,001,2024-10-10_09h31.03.023,untitled,2024.1.5,None,2024-10-10 09h31.09.868849 +0530,
148,0,148,0,895.7117818002589,,895.6288650999777,5,895.7117818002589,895.7117818002589,0.058444700203835964,903.29656659998,[0.33875],[-0.145],[1],[0],[0],[7.612856899853796],['target'],345078,001,2024-10-10_09h31.03.023,untitled,2024.1.5,None,2024-10-10 09h31.09.868849 +0530,
149,0,149,0,903.392956300173,,903.3133272002451,5,903.392956300173,903.392956300173,0.05558779975399375,905.8629376003519,[0.33625],[-0.3475],[1],[0],[0],[2.4967825999483466],['target'],345078,001,2024-10-10_09h31.03.023,untitled,2024.1.5,None,2024-10-10 09h31.09.868849 +0530,
150,0,150,0,905.9922847002745,,905.8788956003264,10,905.9922847002745,905.9922847002745,0.08809749968349934,910.910856500268,[0.09],[0.1825],[1],[0],[0],[4.946312899701297],['target'],345078,001,2024-10-10_09h31.03.023,untitled,2024.1.5,None,2024-10-10 09h31.09.868849 +0530,
151,0,151,0,911.0243657999672,,910.9259420000017,5,911.0243657999672,911.0243657999672,0.08254279987886548,914.1642674002796,[0.4825],[-0.09],[1],[0],[0],[3.1613067002035677],['target'],345078,001,2024-10-10_09h31.03.023,untitled,2024.1.5,None,2024-10-10 09h31.09.868849 +0530,
152,0,152,0,914.2901282003149,,914.1789799001999,10,914.2901282003149,914.2901282003149,0.08459459990262985,920.1252058004029,[-0.27],[-0.1575],[1],[0],[0],[5.864327100105584],['target'],345078,001,2024-10-10_09h31.03.023,untitled,2024.1.5,None,2024-10-10 09h31.09.868849 +0530,
153,0,153,0,920.238892600406,,920.1369131002575,10,920.238892600406,920.238892600406,0.07060059998184443,924.0092129004188,[0.43875],[-0.45875],[1],[0],[0],[3.8038657000288367],[],345078,001,2024-10-10_09h31.03.023,untitled,2024.1.5,None,2024-10-10 09h31.09.868849 +0530,
154,0,154,0,924.1378879002295,,924.0259359003976,10,924.1378879002295,924.1378879002295,0.0815252996981144,929.2947798003443,[0.14125],[0.305],[1],[0],[0],[5.189567600376904],['target'],345078,001,2024-10-10_09h31.03.023,untitled,2024.1.5,None,2024-10-10 09h31.09.868849 +0530,
155,0,155,0,929.4197915000841,,929.3153769001365,5,929.4197915000841,929.4197915000841,0.07539030024781823,933.6047825003043,[0.2025],[-0.1325],[1],[0],[0],[4.217299000360072],['target'],345078,001,2024-10-10_09h31.03.023,untitled,2024.1.5,None,2024-10-10 09h31.09.868849 +0530,
156,0,156,0,933.7356026000343,,933.6156381000765,10,933.7356026000343,933.7356026000343,0.07982240011915565,937.3556413003244,[-0.13375],[0.12],[1],[0],[0],[3.661647299770266],['target'],345078,001,2024-10-10_09h31.03.023,untitled,2024.1.5,None,2024-10-10 09h31.09.868849 +0530,
157,0,157,0,937.4512245003134,,937.3736940003,5,937.4512245003134,937.4512245003134,0.057056200224906206,943.3383020004258,[0.49],[-0.0775],[1],[0],[0],[5.909849400166422],['target'],345078,001,2024-10-10_09h31.03.023,untitled,2024.1.5,None,2024-10-10 09h31.09.868849 +0530,
158,0,158,0,943.4664451000281,,943.3520431001671,10,943.4664451000281,943.4664451000281,0.07792309997603297,950.4034510003403,[-0.3975],[0.49625],[1],[0],[0],[6.975988400168717],['target'],345078,001,2024-10-10_09h31.03.023,untitled,2024.1.5,None,2024-10-10 09h31.09.868849 +0530,
159,0,159,0,950.5145666003227,,950.4265501000918,5,950.5145666003227,950.5145666003227,0.05953759979456663,954.6514104004018,[-0.48125],[0.14375],[1],[0],[0],[4.169419900048524],['target'],345078,001,2024-10-10_09h31.03.023,untitled,2024.1.5,None,2024-10-10 09h31.09.868849 +0530,
160,0,160,0,954.730418200139,,954.6642799000256,5,954.730418200139,954.730418200139,0.04614679981023073,961.4490910000168,[0.48],[0.07625],[1],[0],[0],[6.741572499740869],['target'],345078,001,2024-10-10_09h31.03.023,untitled,2024.1.5,None,2024-10-10 09h31.09.868849 +0530,
161,0,161,0,961.545629600063,,961.4626462003216,5,961.545629600063,961.545629600063,0.052018099930137396,966.7692664000206,[-0.3625],[-0.445],[1],[0],[0],[5.256527699995786],['target'],345078,001,2024-10-10_09h31.03.023,untitled,2024.1.5,None,2024-10-10 09h31.09.868849 +0530,
162,0,162,0,966.9108998002484,,966.7981727002189,10,966.9108998002484,966.9108998002484,0.08102079993113875,972.3132007000968,[-0.26375],[0.05125],[1],[0],[0],[5.4362180000171065],['target'],345078,001,2024-10-10_09h31.03.023,untitled,2024.1.5,None,2024-10-10 09h31.09.868849 +0530,
163,0,163,0,972.443121700082,,972.326953700278,10,972.443121700082,972.443121700082,0.08871460007503629,977.0634165001102,[-0.205],[0.295],[1],[0],[0],[4.651043599937111],['target'],345078,001,2024-10-10_09h31.03.023,untitled,2024.1.5,None,2024-10-10 09h31.09.868849 +0530,
164,0,164,0,977.1416612002067,,977.0770582002588,5,977.1416612002067,977.1416612002067,0.045186900068074465,982.0778616000898,[-0.325],[-0.28375],[1],[0],[0],[4.957703699823469],['target'],345078,001,2024-10-10_09h31.03.023,untitled,2024.1.5,None,2024-10-10 09h31.09.868849 +0530,
165,0,165,0,982.1909270002507,,982.0906919003464,5,982.1909270002507,982.1909270002507,0.05979989981278777,986.3091250001453,[-0.1725],[-0.33],[1],[0],[0],[4.161471799947321],['target'],345078,001,2024-10-10_09h31.03.023,untitled,2024.1.5,None,2024-10-10 09h31.09.868849 +0530,
166,0,166,0,986.3900645002723,,986.3194973003119,5,986.3900645002723,986.3900645002723,0.04146609967574477,990.3594017000869,[0.06],[0.25125],[1],[0],[0],[3.999404600355774],['target'],345078,001,2024-10-10_09h31.03.023,untitled,2024.1.5,None,2024-10-10 09h31.09.868849 +0530,
167,0,167,0,990.5051296004094,,990.3755797999911,10,990.5051296004094,990.5051296004094,0.10622750036418438,994.9905497003347,[0.47375],[0.02],[1],[0],[0],[4.511313499882817],['target'],345078,001,2024-10-10_09h31.03.023,untitled,2024.1.5,None,2024-10-10 09h31.09.868849 +0530,
168,0,168,0,995.1208577002399,,995.0006353002973,10,995.1208577002399,995.1208577002399,0.08212479995563626,998.9079897999763,[0.36875],[0.09125],[1],[0],[0],[3.826508400030434],['target'],345078,001,2024-10-10_09h31.03.023,untitled,2024.1.5,None,2024-10-10 09h31.09.868849 +0530,
169,0,169,0,999.0033720000647,,998.9233548999764,5,999.0033720000647,999.0033720000647,0.060668999794870615,1004.972140900325,[0.15625],[0.37375],[1],[0],[0],[5.99017129978165],['target'],345078,001,2024-10-10_09h31.03.023,untitled,2024.1.5,None,2024-10-10 09h31.09.868849 +0530,
170,0,170,0,1005.101732400246,,1004.9875781000592,10,1005.101732400246,1005.101732400246,0.08355039963498712,1009.4029745003209,[-0.44125],[-0.30875],[1],[0],[0],[4.333392799831927],['target'],345078,001,2024-10-10_09h31.03.023,untitled,2024.1.5,None,2024-10-10 09h31.09.868849 +0530,
171,0,171,0,1009.4678676002659,,1009.4128116001375,5,1009.4678676002659,1009.4678676002659,0.035257000010460615,1013.4533333000727,[-0.0725],[-0.4025],[1],[0],[0],[4.006512700114399],['target'],345078,001,2024-10-10_09h31.03.023,untitled,2024.1.5,None,2024-10-10 09h31.09.868849 +0530,
172,0,172,0,1013.6163689000532,,1013.4697472001426,10,1013.6163689000532,1013.6163689000532,0.11187569983303547,1017.4336198000237,[0.09125],[-0.24625],[1],[0],[0],[3.8538665999658406],['target'],345078,001,2024-10-10_09h31.03.023,untitled,2024.1.5,None,2024-10-10 09h31.09.868849 +0530,
173,0,173,0,1017.498519200366,,1017.4408466001041,5,1017.498519200366,1017.498519200366,0.02905269991606474,1020.8848507003859,[-0.4725],[-0.4525],[1],[0],[0],[3.4155643000267446],['target'],345078,001,2024-10-10_09h31.03.023,untitled,2024.1.5,None,2024-10-10 09h31.09.868849 +0530,
174,0,174,0,1020.9810911002569,,1020.8979520001449,5,1020.9810911002569,1020.9810911002569,0.04997910000383854,1025.28357220022,[-0.13125],[0.39875],[1],[0],[0],[4.338176100049168],['target'],345078,001,2024-10-10_09h31.03.023,untitled,2024.1.5,None,2024-10-10 09h31.09.868849 +0530,
175,0,175,0,1025.3639692002907,,1025.296827299986,5,1025.3639692002907,1025.3639692002907,0.04349870001897216,1029.3816479002126,[0.1125],[0.06875],[1],[0],[0],[4.045051299966872],['target'],345078,001,2024-10-10_09h31.03.023,untitled,2024.1.5,None,2024-10-10 09h31.09.868849 +0530,
176,0,176,0,1029.529220700264,,1029.3901393003762,10,1029.529220700264,1029.529220700264,0.10390409966930747,1033.1477882000618,[0.305],[-0.00625],[1],[0],[0],[3.6548405000939965],['target'],345078,001,2024-10-10_09h31.03.023,untitled,2024.1.5,None,2024-10-10 09h31.09.868849 +0530,
177,0,177,0,1033.2623701002449,,1033.1554879001342,10,1033.2623701002449,1033.2623701002449,0.06473080022260547,1038.612765900325,[0.1975],[0.24625],[1],[0],[0],[5.393445800058544],['target'],345078,001,2024-10-10_09h31.03.023,untitled,2024.1.5,None,2024-10-10 09h31.09.868849 +0530,
178,0,178,0,1038.726801800076,,1038.6242666002363,5,1038.726801800076,1038.726801800076,0.06043369974941015,1042.0301312003285,[-0.395],[-0.26625],[1],[0],[0],[3.3473268002271652],['target'],345078,001,2024-10-10_09h31.03.023,untitled,2024.1.5,None,2024-10-10 09h31.09.868849 +0530,
179,0,179,0,1042.1427307003178,,1042.0468601002358,5,1042.1427307003178,1042.1427307003178,0.058191700372844934,1046.9281797003932,[-0.185],[0.17],[1],[0],[0],[4.825948899611831],['target'],345078,001,2024-10-10_09h31.03.023,untitled,2024.1.5,None,2024-10-10 09h31.09.868849 +0530,
180,0,180,0,1047.0249079000205,,1046.9449738999829,5,1047.0249079000205,1047.0249079000205,0.060045599937438965,1052.9777220999822,[0.46375],[-0.4325],[1],[0],[0],[5.9745897999964654],['target'],345078,001,2024-10-10_09h31.03.023,untitled,2024.1.5,None,2024-10-10 09h31.09.868849 +0530,
181,0,181,0,1053.1066762004048,,1052.995097800158,10,1053.1066762004048,1053.1066762004048,0.06588040012866259,1057.9960896000266,[0.085],[0.35625],[1],[0],[0],[4.937369700055569],['target'],345078,001,2024-10-10_09h31.03.023,untitled,2024.1.5,None,2024-10-10 09h31.09.868849 +0530,
182,0,182,0,1058.1222148002125,,1058.0169894001447,10,1058.1222148002125,1058.1222148002125,0.0769679001532495,1062.025191000197,[-0.16],[-0.1325],[1],[0],[0],[3.934461100026965],['target'],345078,001,2024-10-10_09h31.03.023,untitled,2024.1.5,None,2024-10-10 09h31.09.868849 +0530,
183,0,183,0,1062.1545242001303,,1062.0384630002081,10,1062.1545242001303,1062.1545242001303,0.09320659982040524,1066.0056960000657,[0.03],[-0.39125],[1],[0],[0],[3.877108999993652],['target'],345078,001,2024-10-10_09h31.03.023,untitled,2024.1.5,None,2024-10-10 09h31.09.868849 +0530,
184,0,184,0,1066.1204195003957,,1066.0131712001748,10,1066.1204195003957,1066.1204195003957,0.06481939973309636,1072.8053291002288,[-0.1275],[0.33375],[1],[0],[0],[6.728118999861181],['target'],345078,001,2024-10-10_09h31.03.023,untitled,2024.1.5,None,2024-10-10 09h31.09.868849 +0530,
185,0,185,0,1072.9196187001653,,1072.8136407001875,5,1072.9196187001653,1072.9196187001653,0.06316590029746294,1076.9944460000843,[-0.10375],[0.09375],[1],[0],[0],[4.117810000199825],['target'],345078,001,2024-10-10_09h31.03.023,untitled,2024.1.5,None,2024-10-10 09h31.09.868849 +0530,
186,0,186,0,1077.1675843000412,,1077.0230735000223,10,1077.1675843000412,1077.1675843000412,0.11261359974741936,1083.1201861002482,[0.49625],[0.10625],[1],[0],[0],[5.988239100202918],['target'],345078,001,2024-10-10_09h31.03.023,untitled,2024.1.5,None,2024-10-10 09h31.09.868849 +0530,
187,0,187,0,1083.2493517003022,,1083.1334335003048,10,1083.2493517003022,1083.2493517003022,0.08781079994514585,1087.7040455001406,[-0.3075],[0.0675],[1],[0],[0],[4.485689599998295],['target'],345078,001,2024-10-10_09h31.03.023,untitled,2024.1.5,None,2024-10-10 09h31.09.868849 +0530,
188,0,188,0,1087.8315592003055,,1087.7211975003593,10,1087.8315592003055,1087.8315592003055,0.08969429973512888,1093.254020200111,[-0.25875],[-0.47],[1],[0],[0],[5.445220199879259],['target'],345078,001,2024-10-10_09h31.03.023,untitled,2024.1.5,None,2024-10-10 09h31.09.868849 +0530,
189,0,189,0,1093.3477831003256,,1093.2751690000296,5,1093.3477831003256,1093.3477831003256,0.055214600171893835,1096.7820262000896,[-0.44125],[-0.37],[1],[0],[0],[3.455263299867511],['target'],345078,001,2024-10-10_09h31.03.023,untitled,2024.1.5,None,2024-10-10 09h31.09.868849 +0530,
190,0,190,0,1096.8964091003872,,1096.7895172000863,10,1096.8964091003872,1096.8964091003872,0.07545100012794137,1098.9504363001324,[-0.4],[-0.4325],[1],[0],[0],[2.0862517999485135],['target'],345078,001,2024-10-10_09h31.03.023,untitled,2024.1.5,None,2024-10-10 09h31.09.868849 +0530,
191,0,191,0,1099.0631736000068,,1098.9628460002132,10,1099.0631736000068,1099.0631736000068,0.07433649990707636,1102.847511800006,[0.38125],[-0.21375],[1],[0],[0],[3.8125014998950064],['target'],345078,001,2024-10-10_09h31.03.023,untitled,2024.1.5,None,2024-10-10 09h31.09.868849 +0530,
192,0,192,0,1102.961617800407,,1102.8565103001893,10,1102.961617800407,1102.961617800407,0.07804579986259341,1107.5995621001348,[-0.49625],[-0.1725],[1],[0],[0],[4.665118199773133],['target'],345078,001,2024-10-10_09h31.03.023,untitled,2024.1.5,None,2024-10-10 09h31.09.868849 +0530,
193,0,193,0,1107.6941617000848,,1107.6200891002081,5,1107.6941617000848,1107.6941617000848,0.059465599711984396,1111.9965317002498,[0.33125],[0.445],[1],[0],[0],[4.319579999893904],['target'],345078,001,2024-10-10_09h31.03.023,untitled,2024.1.5,None,2024-10-10 09h31.09.868849 +0530,
194,0,194,0,1112.109315900132,,1112.0117733003572,10,1112.109315900132,1112.109315900132,0.07283789990469813,1117.8443399001844,[-0.33625],[0.34],[1],[0],[0],[5.761971700005233],['target'],345078,001,2024-10-10_09h31.03.023,untitled,2024.1.5,None,2024-10-10 09h31.09.868849 +0530,
195,0,195,0,1117.9576616003178,,1117.853490300011,5,1117.9576616003178,1117.9576616003178,0.06919339997693896,1123.4433190003037,[0.48125],[-0.17375],[1],[0],[0],[5.521466999780387],['target'],345078,001,2024-10-10_09h31.03.023,untitled,2024.1.5,None,2024-10-10 09h31.09.868849 +0530,
196,0,196,0,1123.5731011000462,,1123.4586308002472,10,1123.5731011000462,1123.5731011000462,0.07990309968590736,1132.2238020002842,[-0.005],[0.46125],[1],[0],[0],[8.68768549989909],['target'],345078,001,2024-10-10_09h31.03.023,untitled,2024.1.5,None,2024-10-10 09h31.09.868849 +0530,
197,0,197,0,1132.3045499003492,,1132.2315265000798,5,1132.3045499003492,1132.3045499003492,0.04191449983045459,1140.9392763003707,[-0.36],[-0.07875],[1],[0],[0],[8.66656389972195],['target'],345078,001,2024-10-10_09h31.03.023,untitled,2024.1.5,None,2024-10-10 09h31.09.868849 +0530,
198,0,198,0,1141.019037200138,,1140.9518639002927,5,1141.019037200138,1141.019037200138,0.05172029975801706,1145.3211173000745,[-0.38875],[0.41375],[1],[0],[0],[4.319986700080335],['target'],345078,001,2024-10-10_09h31.03.023,untitled,2024.1.5,None,2024-10-10 09h31.09.868849 +0530,
199,0,199,0,1145.4679011004046,,1145.3358559999615,10,1145.4679011004046,1145.4679011004046,0.1092264000326395,1150.3361470000818,[0.3625],[-0.2575],[1],[0],[0],[4.895733899902552],['target'],345078,001,2024-10-10_09h31.03.023,untitled,2024.1.5,None,2024-10-10 09h31.09.868849 +0530,
