trials.thisRepN,trials.thisTrialN,trials.thisN,trials.thisIndex,thisRow.t,notes,trial.started,num_distr,fixation.started,target.started,mouse.started,trial.stopped,mouse.x,mouse.y,mouse.leftButton,mouse.midButton,mouse.rightButton,mouse.time,mouse.clicked_name,participant,session,date,expName,psychopyVersion,frameRate,expStart,
0,0,0,0,0.10813229996711016,,0.012485799845308065,10,0.10813229996711016,0.10813229996711016,0.07550210040062666,3.6290521998889744,[0.455],[0.3475],[1],[0],[0],[3.551726800389588],['target'],051461,001,2024-10-10_14h55.34.282,untitled,2024.1.5,None,2024-10-10 14h55.40.168871 +0530,
1,0,1,0,3.725616099778563,,3.647396800108254,5,3.725616099778563,3.725616099778563,0.04759449977427721,5.927575800102204,[-0.38],[0.3225],[1],[0],[0],[2.234649300109595],['target'],051461,001,2024-10-10_14h55.34.282,untitled,2024.1.5,None,2024-10-10 14h55.40.168871 +0530,
2,0,2,0,6.073640000075102,,5.941875400021672,10,6.073640000075102,6.073640000075102,0.11079040030017495,8.958475099876523,[0.48125],[0.43],[1],[0],[0],[2.90955079998821],['target'],051461,001,2024-10-10_14h55.34.282,untitled,2024.1.5,None,2024-10-10 14h55.40.168871 +0530,
3,0,3,0,9.022748399991542,,8.966688099782914,5,9.022748399991542,9.022748399991542,0.04190269997343421,11.3279003999196,[0.2525],[-0.00125],[1],[0],[0],[2.3199028000235558],['target'],051461,001,2024-10-10_14h55.34.282,untitled,2024.1.5,None,2024-10-10 14h55.40.168871 +0530,
4,0,4,0,11.45544430008158,,11.340205600019544,10,11.45544430008158,11.45544430008158,0.07976729981601238,14.408089499920607,[-0.1],[-0.4275],[1],[0],[0],[2.990633999928832],['target'],051461,001,2024-10-10_14h55.34.282,untitled,2024.1.5,None,2024-10-10 14h55.40.168871 +0530,
5,0,5,0,14.521946299821138,,14.418798099737614,10,14.521946299821138,14.521946299821138,0.0692400997504592,17.527764699887484,[0.01125],[0.10875],[1],[0],[0],[3.0408116998150945],['target'],051461,001,2024-10-10_14h55.34.282,untitled,2024.1.5,None,2024-10-10 14h55.40.168871 +0530,
6,0,6,0,17.620551699772477,,17.548202599864453,5,17.620551699772477,17.620551699772477,0.04603299964219332,19.45790300006047,[0.3375],[0.33125],[1],[0],[0],[1.8665251000784338],[],051461,001,2024-10-10_14h55.34.282,untitled,2024.1.5,None,2024-10-10 14h55.40.168871 +0530,
7,0,7,0,19.603592399973422,,19.47103409981355,10,19.603592399973422,19.603592399973422,0.09841899992898107,21.492848800029606,[-0.17125],[0.355],[1],[0],[0],[1.9255257002077997],['target'],051461,001,2024-10-10_14h55.34.282,untitled,2024.1.5,None,2024-10-10 14h55.40.168871 +0530,
8,0,8,0,21.602952899876982,,21.513210100121796,5,21.602952899876982,21.602952899876982,0.07476950017735362,25.839383099693805,[0.31],[0.235],[1],[0],[0],[4.25423360010609],['target'],051461,001,2024-10-10_14h55.34.282,untitled,2024.1.5,None,2024-10-10 14h55.40.168871 +0530,
9,0,9,0,25.935888499952853,,25.85436199977994,5,25.935888499952853,25.935888499952853,0.05925250006839633,28.42280860012397,[-0.375],[-0.17375],[1],[0],[0],[2.5122834998182952],['target'],051461,001,2024-10-10_14h55.34.282,untitled,2024.1.5,None,2024-10-10 14h55.40.168871 +0530,
10,0,10,0,28.535431900061667,,28.436345600057393,5,28.535431900061667,28.535431900061667,0.061947000212967396,30.804644799791276,[0.17],[-0.065],[1],[0],[0],[2.3091879999265075],['target'],051461,001,2024-10-10_14h55.34.282,untitled,2024.1.5,None,2024-10-10 14h55.40.168871 +0530,
11,0,11,0,30.934092999901623,,30.821163499727845,10,30.934092999901623,30.934092999901623,0.0894921999424696,32.803117599803954,[-0.13625],[-0.17375],[1],[0],[0],[1.8953521000221372],['target'],051461,001,2024-10-10_14h55.34.282,untitled,2024.1.5,None,2024-10-10 14h55.40.168871 +0530,
12,0,12,0,32.91700219968334,,32.811530199833214,10,32.91700219968334,32.91700219968334,0.06990719959139824,33.90720479981974,[-0.13625],[-0.17375],[1],[0],[0],[1.0260698995552957],[],051461,001,2024-10-10_14h55.34.282,untitled,2024.1.5,None,2024-10-10 14h55.40.168871 +0530,
13,0,13,0,34.12042459985241,,33.92913720011711,10,34.12042459985241,34.12042459985241,0.12777659995481372,37.418319999706,[-0.47],[0.24],[1],[0],[0],[3.3645321000367403],['target'],051461,001,2024-10-10_14h55.34.282,untitled,2024.1.5,None,2024-10-10 14h55.40.168871 +0530,
14,0,14,0,37.54906459990889,,37.4273342997767,10,37.54906459990889,37.54906459990889,0.08395829983055592,39.90533779980615,[-0.06125],[0.245],[1],[0],[0],[2.394834800157696],['target'],051461,001,2024-10-10_14h55.34.282,untitled,2024.1.5,None,2024-10-10 14h55.40.168871 +0530,
15,0,15,0,40.03188299993053,,39.92570489970967,10,40.03188299993053,40.03188299993053,0.07197389984503388,40.070239199791104,[-0.06125],[0.245],[1],[0],[0],[0.07535320008173585],[],051461,001,2024-10-10_14h55.34.282,untitled,2024.1.5,None,2024-10-10 14h55.40.168871 +0530,
16,0,16,0,40.198805099818856,,40.088017399888486,10,40.198805099818856,40.198805099818856,0.08274579979479313,43.06384909991175,[0.14375],[-0.46],[1],[0],[0],[2.893873800057918],['target'],051461,001,2024-10-10_14h55.34.282,untitled,2024.1.5,None,2024-10-10 14h55.40.168871 +0530,
17,0,17,0,43.19785750005394,,43.08581499988213,10,43.19785750005394,43.19785750005394,0.08152650017291307,48.35149719985202,[-0.27625],[0.04125],[1],[0],[0],[5.186263200361282],['target'],051461,001,2024-10-10_14h55.34.282,untitled,2024.1.5,None,2024-10-10 14h55.40.168871 +0530,
18,0,18,0,48.46411589998752,,48.360077999997884,10,48.46411589998752,48.46411589998752,0.0669726999476552,50.28284609969705,[0.14375],[0.3825],[1],[0],[0],[1.8568648998625576],['target'],051461,001,2024-10-10_14h55.34.282,untitled,2024.1.5,None,2024-10-10 14h55.40.168871 +0530,
19,0,19,0,50.44611269980669,,50.3067850000225,10,50.44611269980669,50.44611269980669,0.11414689989760518,52.18202039971948,[0.215],[-0.06875],[1],[0],[0],[1.7648611003533006],['target'],051461,001,2024-10-10_14h55.34.282,untitled,2024.1.5,None,2024-10-10 14h55.40.168871 +0530,
20,0,20,0,52.31224869983271,,52.19084340007976,10,52.31224869983271,52.31224869983271,0.0839364998973906,55.029959599953145,[0.49125],[-0.1675],[1],[0],[0],[2.7563932999037206],['target'],051461,001,2024-10-10_14h55.34.282,untitled,2024.1.5,None,2024-10-10 14h55.40.168871 +0530,
21,0,21,0,55.09732699999586,,55.03566619986668,5,55.09732699999586,55.09732699999586,0.03224280010908842,56.999763699714094,[-0.2825],[0.29375],[1],[0],[0],[1.9321905001997948],['target'],051461,001,2024-10-10_14h55.34.282,untitled,2024.1.5,None,2024-10-10 14h55.40.168871 +0530,
22,0,22,0,57.16161789977923,,57.013136100023985,10,57.16161789977923,57.16161789977923,0.11526869982481003,58.99626719998196,[0.2175],[0.1175],[1],[0],[0],[1.8697219002060592],['target'],051461,001,2024-10-10_14h55.34.282,untitled,2024.1.5,None,2024-10-10 14h55.40.168871 +0530,
23,0,23,0,59.1279160999693,,59.0036613997072,10,59.1279160999693,59.1279160999693,0.08121159998700023,60.69652279978618,[0.37],[-0.26125],[1],[0],[0],[1.6125254002399743],['target'],051461,001,2024-10-10_14h55.34.282,untitled,2024.1.5,None,2024-10-10 14h55.40.168871 +0530,
24,0,24,0,60.79359250003472,,60.704672599677,10,60.79359250003472,60.79359250003472,0.061915299855172634,66.42930250009522,[-0.4375],[0.4325],[1],[0],[0],[5.663390300236642],['target'],051461,001,2024-10-10_14h55.34.282,untitled,2024.1.5,None,2024-10-10 14h55.40.168871 +0530,
25,0,25,0,66.56064869975671,,66.44296129979193,10,66.56064869975671,66.56064869975671,0.0934680001810193,68.32916479976848,[0.18125],[0.435],[1],[0],[0],[1.7964023002423346],['target'],051461,001,2024-10-10_14h55.34.282,untitled,2024.1.5,None,2024-10-10 14h55.40.168871 +0530,
26,0,26,0,68.42578319972381,,68.34075090009719,5,68.42578319972381,68.42578319972381,0.05596049968153238,70.41304120002314,[-0.4],[0.0475],[1],[0],[0],[2.0189010999165475],['target'],051461,001,2024-10-10_14h55.34.282,untitled,2024.1.5,None,2024-10-10 14h55.40.168871 +0530,
27,0,27,0,70.49147100001574,,70.4242320000194,5,70.49147100001574,70.49147100001574,0.04241809993982315,72.34456649981439,[0.26625],[0.11],[1],[0],[0],[1.8801714996807277],['target'],051461,001,2024-10-10_14h55.34.282,untitled,2024.1.5,None,2024-10-10 14h55.40.168871 +0530,
28,0,28,0,72.49239089991897,,72.35772139998153,10,72.49239089991897,72.49239089991897,0.10187380015850067,75.12619789969176,[-0.3525],[-0.44125],[1],[0],[0],[2.6693895999342203],['target'],051461,001,2024-10-10_14h55.34.282,untitled,2024.1.5,None,2024-10-10 14h55.40.168871 +0530,
29,0,29,0,75.24086239980534,,75.13731910008937,10,75.24086239980534,75.24086239980534,0.06481010001152754,77.15937069989741,[-0.3725],[-0.03375],[1],[0],[0],[1.9591175001114607],['target'],051461,001,2024-10-10_14h55.34.282,untitled,2024.1.5,None,2024-10-10 14h55.40.168871 +0530,
30,0,30,0,77.30625799996778,,77.1670816000551,10,77.30625799996778,77.30625799996778,0.09396750014275312,80.707845099736,[0.4825],[-0.1525],[1],[0],[0],[3.4478138997219503],['target'],051461,001,2024-10-10_14h55.34.282,untitled,2024.1.5,None,2024-10-10 14h55.40.168871 +0530,
31,0,31,0,80.77301619993523,,80.71574699971825,5,80.77301619993523,80.77301619993523,0.036893199663609266,82.77533579990268,[0.12375],[-0.19125],[1],[0],[0],[2.0234099002555013],['target'],051461,001,2024-10-10_14h55.34.282,untitled,2024.1.5,None,2024-10-10 14h55.40.168871 +0530,
32,0,32,0,82.90551530010998,,82.789394099731,10,82.90551530010998,82.90551530010998,0.09069930016994476,85.60681769996881,[0.39625],[0.36],[1],[0],[0],[2.730233700014651],['target'],051461,001,2024-10-10_14h55.34.282,untitled,2024.1.5,None,2024-10-10 14h55.40.168871 +0530,
33,0,33,0,85.72074180003256,,85.61548339994624,10,85.72074180003256,85.72074180003256,0.07044819975271821,89.82823779992759,[-0.0825],[0.4975],[1],[0],[0],[4.142474599648267],['target'],051461,001,2024-10-10_14h55.34.282,untitled,2024.1.5,None,2024-10-10 14h55.40.168871 +0530,
34,0,34,0,89.95423709973693,,89.85864729993045,10,89.95423709973693,89.95423709973693,0.07153850002214313,94.32216299977154,[-0.16],[-0.43],[1],[0],[0],[4.395541400182992],['target'],051461,001,2024-10-10_14h55.34.282,untitled,2024.1.5,None,2024-10-10 14h55.40.168871 +0530,
35,0,35,0,94.4854227998294,,94.34005879983306,10,94.4854227998294,94.4854227998294,0.12128149997442961,96.92139860009775,[-0.39625],[0.0775],[1],[0],[0],[2.463248500134796],['target'],051461,001,2024-10-10_14h55.34.282,untitled,2024.1.5,None,2024-10-10 14h55.40.168871 +0530,
36,0,36,0,97.0350921000354,,96.9337046998553,10,97.0350921000354,97.0350921000354,0.06651109969243407,99.95354239968583,[0.01125],[0.475],[1],[0],[0],[2.9554478996433318],['target'],051461,001,2024-10-10_14h55.34.282,untitled,2024.1.5,None,2024-10-10 14h55.40.168871 +0530,
37,0,37,0,100.06750530004501,,99.9643903998658,10,100.06750530004501,100.06750530004501,0.06626749970018864,102.38561860006303,[0.4625],[0.4375],[1],[0],[0],[2.356583599932492],['target'],051461,001,2024-10-10_14h55.34.282,untitled,2024.1.5,None,2024-10-10 14h55.40.168871 +0530,
38,0,38,0,102.51710980013013,,102.39591099973768,10,102.51710980013013,102.51710980013013,0.0804059999063611,105.30199609976262,[-0.3475],[-0.195],[1],[0],[0],[2.8274304000660777],['target'],051461,001,2024-10-10_14h55.34.282,untitled,2024.1.5,None,2024-10-10 14h55.40.168871 +0530,
39,0,39,0,105.3660271000117,,105.31333329994231,5,105.3660271000117,105.3660271000117,0.037496100179851055,107.30506999976933,[-0.05],[0.45125],[1],[0],[0],[1.9560082000680268],['target'],051461,001,2024-10-10_14h55.34.282,untitled,2024.1.5,None,2024-10-10 14h55.40.168871 +0530,
40,0,40,0,107.46578759979457,,107.3195310998708,10,107.46578759979457,107.46578759979457,0.11281880037859082,109.23782919999212,[0.29],[0.43625],[1],[0],[0],[1.8072478999383748],['target'],051461,001,2024-10-10_14h55.34.282,untitled,2024.1.5,None,2024-10-10 14h55.40.168871 +0530,
41,0,41,0,109.34857810009271,,109.25844709994271,5,109.34857810009271,109.34857810009271,0.06167460000142455,111.35220069997013,[0.15375],[0.42875],[1],[0],[0],[2.034781000111252],['target'],051461,001,2024-10-10_14h55.34.282,untitled,2024.1.5,None,2024-10-10 14h55.40.168871 +0530,
42,0,42,0,111.43145469995216,,111.36592329991981,5,111.43145469995216,111.43145469995216,0.048416000325232744,112.92344169970602,[0.115],[0.23],[1],[0],[0],[1.5104110003449023],['target'],051461,001,2024-10-10_14h55.34.282,untitled,2024.1.5,None,2024-10-10 14h55.40.168871 +0530,
43,0,43,0,113.08119479985908,,112.94994590012357,10,113.08119479985908,113.08119479985908,0.10989859979599714,115.30088200001046,[-0.30875],[-0.01],[1],[0],[0],[2.246458400040865],['target'],051461,001,2024-10-10_14h55.34.282,untitled,2024.1.5,None,2024-10-10 14h55.40.168871 +0530,
44,0,44,0,115.3808693997562,,115.30931349983439,5,115.3808693997562,115.3808693997562,0.04379580030217767,118.1835586996749,[0.06125],[-0.44125],[1],[0],[0],[2.8311775997281075],['target'],051461,001,2024-10-10_14h55.34.282,untitled,2024.1.5,None,2024-10-10 14h55.40.168871 +0530,
45,0,45,0,118.26434260001406,,118.19672619970515,5,118.26434260001406,118.26434260001406,0.05222159996628761,120.13724849978462,[0.16125],[-0.175],[1],[0],[0],[1.890982000157237],['target'],051461,001,2024-10-10_14h55.34.282,untitled,2024.1.5,None,2024-10-10 14h55.40.168871 +0530,
46,0,46,0,120.2626414000988,,120.15846870001405,5,120.2626414000988,120.2626414000988,0.08562699984759092,122.31615749979392,[-0.33125],[-0.38375],[1],[0],[0],[2.0756752998568118],['target'],051461,001,2024-10-10_14h55.34.282,untitled,2024.1.5,None,2024-10-10 14h55.40.168871 +0530,
47,0,47,0,122.42930229986086,,122.33024139981717,5,122.42930229986086,122.42930229986086,0.06230589980259538,124.08403960010037,[-0.42625],[0.17],[1],[0],[0],[1.6949752997606993],['target'],051461,001,2024-10-10_14h55.34.282,untitled,2024.1.5,None,2024-10-10 14h55.40.168871 +0530,
48,0,48,0,124.24501449987292,,124.09752009995282,10,124.24501449987292,124.24501449987292,0.10978979989886284,126.3631222997792,[-0.1925],[0.2325],[1],[0],[0],[2.1577305998653173],['target'],051461,001,2024-10-10_14h55.34.282,untitled,2024.1.5,None,2024-10-10 14h55.40.168871 +0530,
49,0,49,0,126.47769089974463,,126.37082620011643,10,126.47769089974463,126.47769089974463,0.06799929961562157,128.42951630009338,[-0.47125],[0.155],[1],[0],[0],[1.9916083002462983],['target'],051461,001,2024-10-10_14h55.34.282,untitled,2024.1.5,None,2024-10-10 14h55.40.168871 +0530,
50,0,50,0,128.51249059988186,,128.43646179977804,5,128.51249059988186,128.51249059988186,0.040055000223219395,130.8811526997015,[0.055],[-0.13125],[1],[0],[0],[2.405253699980676],['target'],051461,001,2024-10-10_14h55.34.282,untitled,2024.1.5,None,2024-10-10 14h55.40.168871 +0530,
51,0,51,0,131.0100374999456,,130.89490359975025,10,131.0100374999456,131.0100374999456,0.07836230006068945,136.91064549982548,[0.04875],[0.435],[1],[0],[0],[5.940851300023496],['target'],051461,001,2024-10-10_14h55.34.282,untitled,2024.1.5,None,2024-10-10 14h55.40.168871 +0530,
52,0,52,0,137.04205629974604,,136.91873909998685,10,137.04205629974604,137.04205629974604,0.0793183003552258,138.9118924997747,[0.1975],[0.1525],[1],[0],[0],[1.9145876998081803],[],051461,001,2024-10-10_14h55.34.282,untitled,2024.1.5,None,2024-10-10 14h55.40.168871 +0530,
53,0,53,0,139.05835560010746,,138.92567389970645,10,139.05835560010746,139.05835560010746,0.10579219972714782,142.2330383998342,[-0.30875],[-0.46],[1],[0],[0],[3.2050012997351587],['target'],051461,001,2024-10-10_14h55.34.282,untitled,2024.1.5,None,2024-10-10 14h55.40.168871 +0530,
54,0,54,0,142.34127559978515,,142.24971699994057,5,142.34127559978515,142.34127559978515,0.06337690027430654,144.27723779994994,[0.1075],[0.1175],[1],[0],[0],[1.9667237997055054],['target'],051461,001,2024-10-10_14h55.34.282,untitled,2024.1.5,None,2024-10-10 14h55.40.168871 +0530,
55,0,55,0,144.40709579968825,,144.29157570004463,10,144.40709579968825,144.40709579968825,0.08493499970063567,147.34219689993188,[0.08625],[-0.37375],[1],[0],[0],[2.9690908999182284],['target'],051461,001,2024-10-10_14h55.34.282,untitled,2024.1.5,None,2024-10-10 14h55.40.168871 +0530,
56,0,56,0,147.45619540009648,,147.3503717998974,10,147.45619540009648,147.45619540009648,0.06731389975175261,150.98142149997875,[0.11],[0.08375],[1],[0],[0],[3.5640968000516295],['target'],051461,001,2024-10-10_14h55.34.282,untitled,2024.1.5,None,2024-10-10 14h55.40.168871 +0530,
57,0,57,0,151.07155409967527,,151.0063423998654,5,151.07155409967527,151.07155409967527,0.04213709989562631,153.22593539999798,[0.385],[0.355],[1],[0],[0],[2.182219499722123],['target'],051461,001,2024-10-10_14h55.34.282,untitled,2024.1.5,None,2024-10-10 14h55.40.168871 +0530,
58,0,58,0,153.33820619992912,,153.24086809996516,5,153.33820619992912,153.33820619992912,0.06761310016736388,155.84095390001312,[-0.03125],[0.49125],[1],[0],[0],[2.534388800151646],['target'],051461,001,2024-10-10_14h55.34.282,untitled,2024.1.5,None,2024-10-10 14h55.40.168871 +0530,
59,0,59,0,155.93735949974507,,155.8548485999927,5,155.93735949974507,155.93735949974507,0.06081419996917248,158.60694279987365,[-0.41375],[-0.30625],[1],[0],[0],[2.6947472002357244],['target'],051461,001,2024-10-10_14h55.34.282,untitled,2024.1.5,None,2024-10-10 14h55.40.168871 +0530,
60,0,60,0,158.70360609982163,,158.62035929970443,5,158.70360609982163,158.70360609982163,0.059035500045865774,160.44158370001242,[-0.49875],[0.22625],[1],[0],[0],[1.7651253999210894],['target'],051461,001,2024-10-10_14h55.34.282,untitled,2024.1.5,None,2024-10-10 14h55.40.168871 +0530,
61,0,61,0,160.5376339997165,,160.4550660001114,5,160.5376339997165,160.5376339997165,0.05618690000846982,162.28965670010075,[0.25125],[-0.1825],[1],[0],[0],[1.7801844999194145],['target'],051461,001,2024-10-10_14h55.34.282,untitled,2024.1.5,None,2024-10-10 14h55.40.168871 +0530,
62,0,62,0,162.38648379966617,,162.30642229970545,5,162.38648379966617,162.38648379966617,0.04868919961154461,164.622406499926,[-0.45875],[-0.21875],[1],[0],[0],[2.2697169999592006],['target'],051461,001,2024-10-10_14h55.34.282,untitled,2024.1.5,None,2024-10-10 14h55.40.168871 +0530,
63,0,63,0,164.7189702000469,,164.63535759970546,5,164.7189702000469,164.7189702000469,0.05151830008253455,166.65501149976626,[0.44],[-0.44],[1],[0],[0],[1.9706717999652028],['target'],051461,001,2024-10-10_14h55.34.282,untitled,2024.1.5,None,2024-10-10 14h55.40.168871 +0530,
64,0,64,0,166.76764740003273,,166.66863959981129,10,166.76764740003273,166.76764740003273,0.07136789988726377,169.55364109994844,[-0.11125],[-0.3925],[1],[0],[0],[2.8173510003834963],['target'],051461,001,2024-10-10_14h55.34.282,untitled,2024.1.5,None,2024-10-10 14h55.40.168871 +0530,
65,0,65,0,169.68402000004426,,169.56246799975634,5,169.68402000004426,169.68402000004426,0.0732498001307249,171.88665700005367,[0.0575],[0.135],[1],[0],[0],[2.252056799829006],['target'],051461,001,2024-10-10_14h55.34.282,untitled,2024.1.5,None,2024-10-10 14h55.40.168871 +0530,
66,0,66,0,172.03357259975746,,171.90157789969817,10,172.03357259975746,172.03357259975746,0.09904279978945851,174.31932709971443,[0.40375],[-0.37875],[1],[0],[0],[2.3205279000103474],['target'],051461,001,2024-10-10_14h55.34.282,untitled,2024.1.5,None,2024-10-10 14h55.40.168871 +0530,
67,0,67,0,174.3995519001037,,174.32950259977952,5,174.3995519001037,174.3995519001037,0.04121079994365573,176.0412993999198,[0.16625],[0.19625],[1],[0],[0],[1.6709344000555575],['target'],051461,001,2024-10-10_14h55.34.282,untitled,2024.1.5,None,2024-10-10 14h55.40.168871 +0530,
68,0,68,0,176.14967689989135,,176.065858699847,5,176.14967689989135,176.14967689989135,0.0590162998996675,177.80234219972044,[-0.18625],[0.08125],[1],[0],[0],[1.682133900001645],[],051461,001,2024-10-10_14h55.34.282,untitled,2024.1.5,None,2024-10-10 14h55.40.168871 +0530,
69,0,69,0,177.8818628997542,,177.81872509978712,5,177.8818628997542,177.8818628997542,0.04802289977669716,179.65211409982294,[0.33875],[-0.18],[1],[0],[0],[1.787892600055784],['target'],051461,001,2024-10-10_14h55.34.282,untitled,2024.1.5,None,2024-10-10 14h55.40.168871 +0530,
70,0,70,0,179.76580499997362,,179.6645726999268,5,179.76580499997362,179.76580499997362,0.0654373001307249,181.78349020006135,[-0.30375],[-0.2175],[1],[0],[0],[2.05645120004192],[],051461,001,2024-10-10_14h55.34.282,untitled,2024.1.5,None,2024-10-10 14h55.40.168871 +0530,
71,0,71,0,181.9003550997004,,181.79070940008387,5,181.9003550997004,181.9003550997004,0.06489599961787462,183.9175117998384,[0.22625],[0.41],[1],[0],[0],[2.062588000204414],['target'],051461,001,2024-10-10_14h55.34.282,untitled,2024.1.5,None,2024-10-10 14h55.40.168871 +0530,
72,0,72,0,184.0141992000863,,183.93351299967617,5,184.0141992000863,184.0141992000863,0.04911989998072386,185.95353409973904,[-0.34],[-0.195],[1],[0],[0],[1.9724018000997603],['target'],051461,001,2024-10-10_14h55.34.282,untitled,2024.1.5,None,2024-10-10 14h55.40.168871 +0530,
73,0,73,0,186.06346189975739,,185.97599510010332,5,186.06346189975739,186.06346189975739,0.07302960008382797,189.5020991996862,[-0.40125],[0.4675],[1],[0],[0],[3.4574168999679387],['target'],051461,001,2024-10-10_14h55.34.282,untitled,2024.1.5,None,2024-10-10 14h55.40.168871 +0530,
74,0,74,0,189.61284469999373,,189.52166369976476,5,189.61284469999373,189.61284469999373,0.06178600015118718,191.49825940001756,[0.46125],[-0.205],[1],[0],[0],[1.9176008999347687],['target'],051461,001,2024-10-10_14h55.34.282,untitled,2024.1.5,None,2024-10-10 14h55.40.168871 +0530,
75,0,75,0,191.62901649996638,,191.50929969968274,10,191.62901649996638,191.62901649996638,0.083430300001055,193.36366220004857,[-0.0875],[0.43125],[1],[0],[0],[1.7727560997009277],['target'],051461,001,2024-10-10_14h55.34.282,untitled,2024.1.5,None,2024-10-10 14h55.40.168871 +0530,
76,0,76,0,193.4466693997383,,193.36944979988039,5,193.4466693997383,193.4466693997383,0.04134410014376044,194.88172050006688,[-0.13375],[0.30125],[1],[0],[0],[1.47124549979344],[],051461,001,2024-10-10_14h55.34.282,untitled,2024.1.5,None,2024-10-10 14h55.40.168871 +0530,
77,0,77,0,195.01153879985213,,194.89522669976577,10,195.01153879985213,195.01153879985213,0.08756780019029975,198.31710979994386,[-0.235],[-0.37875],[1],[0],[0],[3.3364849002100527],['target'],051461,001,2024-10-10_14h55.34.282,untitled,2024.1.5,None,2024-10-10 14h55.40.168871 +0530,
78,0,78,0,198.42711189994588,,198.33761409996077,5,198.42711189994588,198.42711189994588,0.06139259971678257,201.5811887998134,[-0.3375],[-0.44],[1],[0],[0],[3.1848706998862326],['target'],051461,001,2024-10-10_14h55.34.282,untitled,2024.1.5,None,2024-10-10 14h55.40.168871 +0530,
79,0,79,0,201.7099982998334,,201.6013074000366,10,201.7099982998334,201.7099982998334,0.0869740997441113,203.71379290008917,[0.20375],[0.27375],[1],[0],[0],[2.0309007996693254],['target'],051461,001,2024-10-10_14h55.34.282,untitled,2024.1.5,None,2024-10-10 14h55.40.168871 +0530,
80,0,80,0,203.8257339000702,,203.72843790007755,5,203.8257339000702,203.8257339000702,0.06756199989467859,205.6467983997427,[0.03625],[0.42625],[1],[0],[0],[1.85274440003559],['target'],051461,001,2024-10-10_14h55.34.282,untitled,2024.1.5,None,2024-10-10 14h55.40.168871 +0530,
81,0,81,0,205.74312220001593,,205.66063820011914,5,205.74312220001593,205.74312220001593,0.056215899996459484,208.96132589969784,[-0.11],[-0.0275],[1],[0],[0],[3.246325199957937],['target'],051461,001,2024-10-10_14h55.34.282,untitled,2024.1.5,None,2024-10-10 14h55.40.168871 +0530,
82,0,82,0,209.05821059970185,,208.97743279999122,5,209.05821059970185,209.05821059970185,0.05102819995954633,210.66100829979405,[0.2075],[0.48625],[1],[0],[0],[1.6346268001943827],['target'],051461,001,2024-10-10_14h55.34.282,untitled,2024.1.5,None,2024-10-10 14h55.40.168871 +0530,
83,0,83,0,210.7586578996852,,210.674584900029,5,210.7586578996852,210.7586578996852,0.05651010014116764,212.51059779990464,[-0.30125],[0.0075],[1],[0],[0],[1.782837700098753],['target'],051461,001,2024-10-10_14h55.34.282,untitled,2024.1.5,None,2024-10-10 14h55.40.168871 +0530,
84,0,84,0,212.58989570010453,,212.52399759972468,5,212.58989570010453,212.58989570010453,0.0482340999878943,216.56356319971383,[0.38375],[0.47],[1],[0],[0],[3.993685800116509],['target'],051461,001,2024-10-10_14h55.34.282,untitled,2024.1.5,None,2024-10-10 14h55.40.168871 +0530,
85,0,85,0,216.7394042997621,,216.5847076997161,10,216.7394042997621,216.7394042997621,0.12130770040675998,223.00778830004856,[-0.1575],[0.47375],[1],[0],[0],[6.305014200042933],['target'],051461,001,2024-10-10_14h55.34.282,untitled,2024.1.5,None,2024-10-10 14h55.40.168871 +0530,
86,0,86,0,223.0710621997714,,223.01532569993287,5,223.0710621997714,223.0710621997714,0.03914949996396899,225.6645935997367,[-0.21],[0.0125],[1],[0],[0],[2.609775099903345],['target'],051461,001,2024-10-10_14h55.34.282,untitled,2024.1.5,None,2024-10-10 14h55.40.168871 +0530,
87,0,87,0,225.80397300003096,,225.6937555000186,5,225.80397300003096,225.80397300003096,0.087134700268507,227.7756523997523,[0.17625],[-0.4025],[1],[0],[0],[1.9985079001635313],['target'],051461,001,2024-10-10_14h55.34.282,untitled,2024.1.5,None,2024-10-10 14h55.40.168871 +0530,
88,0,88,0,227.9033200996928,,227.78983110003173,10,227.9033200996928,227.9033200996928,0.08333769999444485,230.0581062999554,[0.075],[0.42875],[1],[0],[0],[2.1866133003495634],['target'],051461,001,2024-10-10_14h55.34.282,untitled,2024.1.5,None,2024-10-10 14h55.40.168871 +0530,
89,0,89,0,230.15299020009115,,230.07555099995807,5,230.15299020009115,230.15299020009115,0.05644459975883365,231.824574300088,[-0.1125],[-0.09375],[1],[0],[0],[1.6947893998585641],['target'],051461,001,2024-10-10_14h55.34.282,untitled,2024.1.5,None,2024-10-10 14h55.40.168871 +0530,
90,0,90,0,231.9691948997788,,231.83797980006784,10,231.9691948997788,231.9691948997788,0.09751430014148355,233.98753749998286,[0.29375],[0.2925],[1],[0],[0],[2.054364399984479],['target'],051461,001,2024-10-10_14h55.34.282,untitled,2024.1.5,None,2024-10-10 14h55.40.168871 +0530,
91,0,91,0,234.0687635000795,,233.99606700008735,5,234.0687635000795,234.0687635000795,0.042313999962061644,235.80562569992617,[-0.315],[-0.0725],[1],[0],[0],[1.767932299990207],['target'],051461,001,2024-10-10_14h55.34.282,untitled,2024.1.5,None,2024-10-10 14h55.40.168871 +0530,
92,0,92,0,235.91887419996783,,235.81833899999037,5,235.91887419996783,235.91887419996783,0.06489899987354875,237.2880712999031,[-0.215],[0.39875],[1],[0],[0],[1.4072720999829471],[],051461,001,2024-10-10_14h55.34.282,untitled,2024.1.5,None,2024-10-10 14h55.40.168871 +0530,
93,0,93,0,237.4178001997061,,237.30239189974964,10,237.4178001997061,237.4178001997061,0.08686320018023252,240.4527823999524,[0.14125],[-0.30875],[1],[0],[0],[3.0675409003160894],['target'],051461,001,2024-10-10_14h55.34.282,untitled,2024.1.5,None,2024-10-10 14h55.40.168871 +0530,
94,0,94,0,240.58403379982337,,240.46066359989345,10,240.58403379982337,240.58403379982337,0.08227759972214699,242.6111151999794,[0.4375],[-0.285],[1],[0],[0],[2.0675686998292804],['target'],051461,001,2024-10-10_14h55.34.282,untitled,2024.1.5,None,2024-10-10 14h55.40.168871 +0530,
95,0,95,0,242.68428859999403,,242.6340242996812,5,242.68428859999403,242.68428859999403,0.02686430001631379,245.28594079986215,[-0.29],[0.21625],[1],[0],[0],[2.625537400133908],[],051461,001,2024-10-10_14h55.34.282,untitled,2024.1.5,None,2024-10-10 14h55.40.168871 +0530,
96,0,96,0,245.36582239996642,,245.29812519997358,5,245.36582239996642,245.36582239996642,0.03948569996282458,248.10205699969083,[0.40125],[0.16875],[1],[0],[0],[2.767300999723375],['target'],051461,001,2024-10-10_14h55.34.282,untitled,2024.1.5,None,2024-10-10 14h55.40.168871 +0530,
97,0,97,0,248.21510329982266,,248.11505310004577,10,248.21510329982266,248.21510329982266,0.0725568002089858,250.00219149980694,[-0.2375],[0.30625],[1],[0],[0],[1.8172724000178277],['target'],051461,001,2024-10-10_14h55.34.282,untitled,2024.1.5,None,2024-10-10 14h55.40.168871 +0530,
98,0,98,0,250.11476959986612,,250.01785859977826,10,250.11476959986612,250.11476959986612,0.0663990001194179,251.74313140008599,[-0.4425],[0.22625],[1],[0],[0],[1.6606390001252294],['target'],051461,001,2024-10-10_14h55.34.282,untitled,2024.1.5,None,2024-10-10 14h55.40.168871 +0530,
99,0,99,0,251.88115229969844,,251.77329709986225,5,251.88115229969844,251.88115229969844,0.09628089983016253,254.21828729985282,[-0.225],[-0.40375],[1],[0],[0],[2.354472900275141],['target'],051461,001,2024-10-10_14h55.34.282,untitled,2024.1.5,None,2024-10-10 14h55.40.168871 +0530,
100,0,100,0,254.34733029967174,,254.2475243001245,10,254.34733029967174,254.34733029967174,0.08099570032209158,256.6160140000284,[0.4175],[-0.325],[1],[0],[0],[2.293771700002253],['target'],051461,001,2024-10-10_14h55.34.282,untitled,2024.1.5,None,2024-10-10 14h55.40.168871 +0530,
101,0,101,0,256.7130692997016,,256.625023199711,10,256.7130692997016,256.7130692997016,0.061525400262326,258.417438399978,[0.34125],[0.385],[1],[0],[0],[1.7316661002114415],[],051461,001,2024-10-10_14h55.34.282,untitled,2024.1.5,None,2024-10-10 14h55.40.168871 +0530,
102,0,102,0,258.5292600998655,,258.4335761000402,5,258.5292600998655,258.5292600998655,0.06531409965828061,260.43559359991923,[0.29625],[-0.46],[1],[0],[0],[1.938440500292927],['target'],051461,001,2024-10-10_14h55.34.282,untitled,2024.1.5,None,2024-10-10 14h55.40.168871 +0530,
103,0,103,0,260.529034699779,,260.4517824999057,5,260.529034699779,260.529034699779,0.0470461999066174,262.4328466998413,[-0.35],[0.26],[1],[0],[0],[1.9359788997098804],['target'],051461,001,2024-10-10_14h55.34.282,untitled,2024.1.5,None,2024-10-10 14h55.40.168871 +0530,
104,0,104,0,262.52869689976797,,262.44986000005156,5,262.52869689976797,262.52869689976797,0.04763150028884411,265.53101169969887,[0.175],[0.43],[1],[0],[0],[3.036028299946338],[],051461,001,2024-10-10_14h55.34.282,untitled,2024.1.5,None,2024-10-10 14h55.40.168871 +0530,
105,0,105,0,265.6279086000286,,265.54506549984217,5,265.6279086000286,265.6279086000286,0.05917799985036254,267.4980212999508,[-0.105],[0.195],[1],[0],[0],[1.8975193998776376],['target'],051461,001,2024-10-10_14h55.34.282,untitled,2024.1.5,None,2024-10-10 14h55.40.168871 +0530,
106,0,106,0,267.61108299996704,,267.5133464001119,5,267.61108299996704,267.61108299996704,0.06478579994291067,269.2808978999965,[-0.25875],[0.4075],[1],[0],[0],[1.7043860000558197],['target'],051461,001,2024-10-10_14h55.34.282,untitled,2024.1.5,None,2024-10-10 14h55.40.168871 +0530,
107,0,107,0,269.3947779000737,,269.29594939993694,5,269.3947779000737,269.3947779000737,0.06752049969509244,270.89675850002095,[0.045],[0.35875],[1],[0],[0],[1.5347695001401007],['target'],051461,001,2024-10-10_14h55.34.282,untitled,2024.1.5,None,2024-10-10 14h55.40.168871 +0530,
108,0,108,0,271.02650009980425,,270.9095473997295,10,271.02650009980425,271.02650009980425,0.0818032999522984,272.92823399975896,[0.4025],[-0.04625],[1],[0],[0],[1.9393617999739945],['target'],051461,001,2024-10-10_14h55.34.282,untitled,2024.1.5,None,2024-10-10 14h55.40.168871 +0530,
109,0,109,0,273.05911649996415,,272.9364799996838,10,273.05911649996415,273.05911649996415,0.08178330026566982,275.4516763999127,[0.105],[-0.3125],[1],[0],[0],[2.4332965002395213],['target'],051461,001,2024-10-10_14h55.34.282,untitled,2024.1.5,None,2024-10-10 14h55.40.168871 +0530,
110,0,110,0,275.57534939981997,,275.4797227997333,5,275.57534939981997,275.57534939981997,0.08267389982938766,277.478587300051,[0.2475],[-0.01875],[1],[0],[0],[1.9210238000378013],['target'],051461,001,2024-10-10_14h55.34.282,untitled,2024.1.5,None,2024-10-10 14h55.40.168871 +0530,
111,0,111,0,277.6415702998638,,277.49205440003425,10,277.6415702998638,277.6415702998638,0.1132748001255095,280.19285940006375,[-0.35],[0.0675],[1],[0],[0],[2.590891399886459],[],051461,001,2024-10-10_14h55.34.282,untitled,2024.1.5,None,2024-10-10 14h55.40.168871 +0530,
112,0,112,0,280.29121599998325,,280.2000889996998,10,280.29121599998325,280.29121599998325,0.06410299986600876,282.24755279999226,[0.16],[-0.16],[1],[0],[0],[1.983436799608171],['target'],051461,001,2024-10-10_14h55.34.282,untitled,2024.1.5,None,2024-10-10 14h55.40.168871 +0530,
113,0,113,0,282.37368749966845,,282.2677531996742,10,282.37368749966845,282.37368749966845,0.07010379992425442,284.7934115999378,[-0.11125],[0.31],[1],[0],[0],[2.4580632001161575],['target'],051461,001,2024-10-10_14h55.34.282,untitled,2024.1.5,None,2024-10-10 14h55.40.168871 +0530,
114,0,114,0,284.9397509996779,,284.815643500071,10,284.9397509996779,284.9397509996779,0.10126080038025975,286.6249502999708,[0.31875],[0.165],[1],[0],[0],[1.7113848999142647],['target'],051461,001,2024-10-10_14h55.34.282,untitled,2024.1.5,None,2024-10-10 14h55.40.168871 +0530,
115,0,115,0,286.7565040998161,,286.63287079986185,10,286.7565040998161,286.7565040998161,0.08240369986742735,290.37771779997274,[-0.4425],[-0.47],[1],[0],[0],[3.6626126002520323],['target'],051461,001,2024-10-10_14h55.34.282,untitled,2024.1.5,None,2024-10-10 14h55.40.168871 +0530,
116,0,116,0,290.50496429996565,,290.3982144999318,10,290.50496429996565,290.50496429996565,0.07797039998695254,293.028298499994,[0.03375],[-0.15375],[1],[0],[0],[2.5544360000640154],['target'],051461,001,2024-10-10_14h55.34.282,untitled,2024.1.5,None,2024-10-10 14h55.40.168871 +0530,
117,0,117,0,293.1210229001008,,293.0500229001045,5,293.1210229001008,293.1210229001008,0.042429099790751934,294.97708939993754,[0.11125],[-0.20625],[1],[0],[0],[1.8875306001864374],['target'],051461,001,2024-10-10_14h55.34.282,untitled,2024.1.5,None,2024-10-10 14h55.40.168871 +0530,
118,0,118,0,295.0707364999689,,294.9908594000153,5,295.0707364999689,295.0707364999689,0.06055449973791838,297.35697179986164,[-0.395],[-0.1375],[1],[0],[0],[2.307862800080329],['target'],051461,001,2024-10-10_14h55.34.282,untitled,2024.1.5,None,2024-10-10 14h55.40.168871 +0530,
119,0,119,0,297.4699082998559,,297.3706656000577,10,297.4699082998559,297.4699082998559,0.07479840004816651,298.805122199934,[-0.40625],[-0.13625],[1],[0],[0],[1.3634757003746927],['target'],051461,001,2024-10-10_14h55.34.282,untitled,2024.1.5,None,2024-10-10 14h55.40.168871 +0530,
120,0,120,0,298.8698557000607,,298.81279469979927,5,298.8698557000607,298.8698557000607,0.03999450011178851,301.1898252000101,[0.22],[-0.25125],[1],[0],[0],[2.338046499993652],['target'],051461,001,2024-10-10_14h55.34.282,untitled,2024.1.5,None,2024-10-10 14h55.40.168871 +0530,
121,0,121,0,301.3358471998945,,301.2038782997988,10,301.3358471998945,301.3358471998945,0.10042480006814003,303.1892236000858,[0.39625],[-0.3175],[1],[0],[0],[1.8876706999726593],['target'],051461,001,2024-10-10_14h55.34.282,untitled,2024.1.5,None,2024-10-10 14h55.40.168871 +0530,
122,0,122,0,303.2856867997907,,303.20285389991477,5,303.2856867997907,303.2856867997907,0.062057599890977144,304.7723158998415,[0.395],[-0.0175],[1],[0],[0],[1.5099987001158297],['target'],051461,001,2024-10-10_14h55.34.282,untitled,2024.1.5,None,2024-10-10 14h55.40.168871 +0530,
123,0,123,0,304.90263699973,,304.78592369984835,10,304.90263699973,304.90263699973,0.08044240018352866,306.79157119989395,[-0.4025],[0.21],[1],[0],[0],[1.9271690002642572],['target'],051461,001,2024-10-10_14h55.34.282,untitled,2024.1.5,None,2024-10-10 14h55.40.168871 +0530,
124,0,124,0,306.8847197997384,,306.8116624997929,5,306.8847197997384,306.8847197997384,0.05075860023498535,310.170739099849,[0.35625],[-0.42],[1],[0],[0],[3.3112410004250705],[],051461,001,2024-10-10_14h55.34.282,untitled,2024.1.5,None,2024-10-10 14h55.40.168871 +0530,
125,0,125,0,310.3005858999677,,310.18314439989626,10,310.3005858999677,310.3005858999677,0.07993589993566275,313.3867997000925,[0.12125],[0.46625],[1],[0],[0],[3.126243300270289],['target'],051461,001,2024-10-10_14h55.34.282,untitled,2024.1.5,None,2024-10-10 14h55.40.168871 +0530,
126,0,126,0,313.51628769980744,,313.39837339986116,10,313.51628769980744,313.51628769980744,0.0878285001963377,316.989017999731,[0.49125],[0.14],[1],[0],[0],[3.5051347999833524],['target'],051461,001,2024-10-10_14h55.34.282,untitled,2024.1.5,None,2024-10-10 14h55.40.168871 +0530,
127,0,127,0,317.1151197999716,,317.01321429992095,5,317.1151197999716,317.1151197999716,0.07985450001433492,318.80324580008164,[-0.03],[0.1075],[1],[0],[0],[1.7150744004175067],['target'],051461,001,2024-10-10_14h55.34.282,untitled,2024.1.5,None,2024-10-10 14h55.40.168871 +0530,
128,0,128,0,318.9653833997436,,318.8166185999289,10,318.9653833997436,318.9653833997436,0.11085010040551424,321.45116729987785,[0.30375],[-0.1225],[1],[0],[0],[2.5261435001157224],['target'],051461,001,2024-10-10_14h55.34.282,untitled,2024.1.5,None,2024-10-10 14h55.40.168871 +0530,
129,0,129,0,321.5640320996754,,321.4609773000702,10,321.5640320996754,321.5640320996754,0.07682459987699986,323.96552099986,[0.37125],[-0.3825],[1],[0],[0],[2.4297616998665035],['target'],051461,001,2024-10-10_14h55.34.282,untitled,2024.1.5,None,2024-10-10 14h55.40.168871 +0530,
130,0,130,0,324.0640096999705,,323.97105839988217,10,324.0640096999705,324.0640096999705,0.05478530004620552,325.702073500026,[-0.09375],[0.17125],[1],[0],[0],[1.6761125000193715],['target'],051461,001,2024-10-10_14h55.34.282,untitled,2024.1.5,None,2024-10-10 14h55.40.168871 +0530,
131,0,131,0,325.8131206999533,,325.71949240006506,5,325.8131206999533,325.8131206999533,0.07608349993824959,327.4009926998988,[0.3025],[0.2275],[1],[0],[0],[1.6079163001850247],['target'],051461,001,2024-10-10_14h55.34.282,untitled,2024.1.5,None,2024-10-10 14h55.40.168871 +0530,
132,0,132,0,327.51281789969653,,327.41782049974427,5,327.51281789969653,327.51281789969653,0.060482699889689684,329.8659961000085,[0.48875],[0.1975],[1],[0],[0],[2.3903326001018286],['target'],051461,001,2024-10-10_14h55.34.282,untitled,2024.1.5,None,2024-10-10 14h55.40.168871 +0530,
133,0,133,0,329.9792494997382,,329.87965000001714,5,329.9792494997382,329.9792494997382,0.06533919973298907,331.58513019979,[0.19375],[-0.26],[1],[0],[0],[1.6432980000972748],['target'],051461,001,2024-10-10_14h55.34.282,untitled,2024.1.5,None,2024-10-10 14h55.40.168871 +0530,
134,0,134,0,331.7456851997413,,331.60923800012097,10,331.7456851997413,331.7456851997413,0.11657720012590289,334.5469789998606,[-0.45125],[0.44625],[1],[0],[0],[2.8269547997042537],['target'],051461,001,2024-10-10_14h55.34.282,untitled,2024.1.5,None,2024-10-10 14h55.40.168871 +0530,
135,0,135,0,334.66104379994795,,334.5560718998313,5,334.66104379994795,334.66104379994795,0.08444919995963573,336.4646501997486,[0.06625],[0.32125],[1],[0],[0],[1.8250873000361025],['target'],051461,001,2024-10-10_14h55.34.282,untitled,2024.1.5,None,2024-10-10 14h55.40.168871 +0530,
136,0,136,0,336.560748799704,,336.47930839983746,5,336.560748799704,336.560748799704,0.05238280026242137,339.3477189000696,[-0.2325],[-0.28125],[1],[0],[0],[2.8195009999908507],['target'],051461,001,2024-10-10_14h55.34.282,untitled,2024.1.5,None,2024-10-10 14h55.40.168871 +0530,
137,0,137,0,339.46113679977134,,339.36201329994947,5,339.46113679977134,339.46113679977134,0.06763159995898604,342.11237460002303,[0.39375],[0.4225],[1],[0],[0],[2.684608200099319],['target'],051461,001,2024-10-10_14h55.34.282,untitled,2024.1.5,None,2024-10-10 14h55.40.168871 +0530,
138,0,138,0,342.2427844000049,,342.12465719971806,10,342.2427844000049,342.2427844000049,0.07868129992857575,344.3773695998825,[0.20625],[0.1325],[1],[0],[0],[2.1767359003424644],['target'],051461,001,2024-10-10_14h55.34.282,untitled,2024.1.5,None,2024-10-10 14h55.40.168871 +0530,
139,0,139,0,344.47529819980264,,344.38313849968836,10,344.47529819980264,344.47529819980264,0.05534720001742244,349.24495860002935,[-0.0125],[-0.23625],[1],[0],[0],[4.806591399945319],['target'],051461,001,2024-10-10_14h55.34.282,untitled,2024.1.5,None,2024-10-10 14h55.40.168871 +0530,
140,0,140,0,349.3407729999162,,349.2578281997703,5,349.3407729999162,349.3407729999162,0.0595033997669816,351.51133110001683,[-0.20625],[-0.32375],[1],[0],[0],[2.1964923995546997],['target'],051461,001,2024-10-10_14h55.34.282,untitled,2024.1.5,None,2024-10-10 14h55.40.168871 +0530,
141,0,141,0,351.62385579990223,,351.5309000001289,5,351.62385579990223,351.62385579990223,0.07104119984433055,353.6438110996969,[0.22375],[0.17875],[1],[0],[0],[2.045200699940324],['target'],051461,001,2024-10-10_14h55.34.282,untitled,2024.1.5,None,2024-10-10 14h55.40.168871 +0530,
142,0,142,0,353.72338739968836,,353.65643330011517,5,353.72338739968836,353.72338739968836,0.05104900011792779,356.60754110012203,[-0.24625],[-0.12375],[1],[0],[0],[2.902823999989778],['target'],051461,001,2024-10-10_14h55.34.282,untitled,2024.1.5,None,2024-10-10 14h55.40.168871 +0530,
143,0,143,0,356.70667540002614,,356.6125416001305,10,356.70667540002614,356.70667540002614,0.05848779994994402,360.3267242000438,[-0.46875],[-0.07],[1],[0],[0],[3.655682699754834],['target'],051461,001,2024-10-10_14h55.34.282,untitled,2024.1.5,None,2024-10-10 14h55.40.168871 +0530,
144,0,144,0,360.4718752996996,,360.3489155001007,10,360.4718752996996,360.4718752996996,0.09924319991841912,362.64158729976043,[-0.38125],[0.44875],[1],[0],[0],[2.197378700133413],['target'],051461,001,2024-10-10_14h55.34.282,untitled,2024.1.5,None,2024-10-10 14h55.40.168871 +0530,
145,0,145,0,362.7547053997405,,362.65752410003915,10,362.7547053997405,362.7547053997405,0.0696557997725904,367.5922417999245,[0.33625],[-0.40875],[1],[0],[0],[4.86743939993903],['target'],051461,001,2024-10-10_14h55.34.282,untitled,2024.1.5,None,2024-10-10 14h55.40.168871 +0530,
146,0,146,0,367.7030813000165,,367.61683879978955,5,367.7030813000165,367.7030813000165,0.06469429982826114,369.97433959972113,[0.46375],[-0.23625],[1],[0],[0],[2.295555899851024],['target'],051461,001,2024-10-10_14h55.34.282,untitled,2024.1.5,None,2024-10-10 14h55.40.168871 +0530,
147,0,147,0,370.1025302996859,,369.9889607001096,10,370.1025302996859,370.1025302996859,0.08285610005259514,373.2878252998926,[-0.14375],[-0.34125],[1],[0],[0],[3.2195885996334255],['target'],051461,001,2024-10-10_14h55.34.282,untitled,2024.1.5,None,2024-10-10 14h55.40.168871 +0530,
148,0,148,0,373.3685318999924,,373.295784200076,5,373.3685318999924,373.3685318999924,0.04316550027579069,375.03849710011855,[0.33625],[0.0825],[1],[0],[0],[1.7002400001510978],['target'],051461,001,2024-10-10_14h55.34.282,untitled,2024.1.5,None,2024-10-10 14h55.40.168871 +0530,
149,0,149,0,375.18463769974187,,375.0520945000462,10,375.18463769974187,375.18463769974187,0.10090769967064261,378.0366445998661,[0.2375],[-0.08],[1],[0],[0],[2.8873936999589205],['target'],051461,001,2024-10-10_14h55.34.282,untitled,2024.1.5,None,2024-10-10 14h55.40.168871 +0530,
150,0,150,0,378.1173195000738,,378.0451771998778,5,378.1173195000738,378.1173195000738,0.04255500016734004,380.1553885997273,[0.35],[0.41125],[1],[0],[0],[2.0684122000820935],['target'],051461,001,2024-10-10_14h55.34.282,untitled,2024.1.5,None,2024-10-10 14h55.40.168871 +0530,
151,0,151,0,380.250917899888,,380.1700621997006,5,380.250917899888,380.250917899888,0.052420500200241804,382.7042215000838,[-0.45125],[0.1075],[1],[0],[0],[2.4834747002460063],['target'],051461,001,2024-10-10_14h55.34.282,untitled,2024.1.5,None,2024-10-10 14h55.40.168871 +0530,
152,0,152,0,382.8160866997205,,382.7191977999173,5,382.8160866997205,382.8160866997205,0.0672242003493011,385.57084249984473,[-0.4025],[-0.40625],[1],[0],[0],[2.7864411999471486],['target'],051461,001,2024-10-10_14h55.34.282,untitled,2024.1.5,None,2024-10-10 14h55.40.168871 +0530,
153,0,153,0,385.66575190005824,,385.58701519994065,5,385.66575190005824,385.66575190005824,0.053167400415986776,387.9021944999695,[0.2975],[-0.41375],[1],[0],[0],[2.2642513001337647],['target'],051461,001,2024-10-10_14h55.34.282,untitled,2024.1.5,None,2024-10-10 14h55.40.168871 +0530,
154,0,154,0,387.99828399997205,,387.918575800024,5,387.99828399997205,387.99828399997205,0.05498410016298294,389.81797219999135,[0.0],[0.15375],[1],[0],[0],[1.8468907000496984],['target'],051461,001,2024-10-10_14h55.34.282,untitled,2024.1.5,None,2024-10-10 14h55.40.168871 +0530,
155,0,155,0,389.9643927998841,,389.83141059987247,10,389.9643927998841,389.9643927998841,0.10038729989901185,396.0007822997868,[-0.46625],[-0.47125],[1],[0],[0],[6.0722147999331355],['target'],051461,001,2024-10-10_14h55.34.282,untitled,2024.1.5,None,2024-10-10 14h55.40.168871 +0530,
156,0,156,0,396.11294109979644,,396.0156093998812,5,396.11294109979644,396.11294109979644,0.06976490002125502,398.53277559997514,[0.16375],[-0.29375],[1],[0],[0],[2.4502027998678386],['target'],051461,001,2024-10-10_14h55.34.282,untitled,2024.1.5,None,2024-10-10 14h55.40.168871 +0530,
157,0,157,0,398.68029459984973,,398.54587309993804,10,398.68029459984973,398.68029459984973,0.10785800032317638,401.11392919998616,[0.01],[-0.1],[1],[0],[0],[2.46384060010314],['target'],051461,001,2024-10-10_14h55.34.282,untitled,2024.1.5,None,2024-10-10 14h55.40.168871 +0530,
158,0,158,0,401.194947199896,,401.1218988997862,5,401.194947199896,401.194947199896,0.043052599765360355,402.6325209001079,[0.01375],[0.2025],[1],[0],[0],[1.4681595000438392],['target'],051461,001,2024-10-10_14h55.34.282,untitled,2024.1.5,None,2024-10-10 14h55.40.168871 +0530,
159,0,159,0,402.7780181998387,,402.6463772999123,10,402.7780181998387,402.7780181998387,0.10275599965825677,405.0972238997929,[-0.3375],[0.32625],[1],[0],[0],[2.3512491998262703],[],051461,001,2024-10-10_14h55.34.282,untitled,2024.1.5,None,2024-10-10 14h55.40.168871 +0530,
160,0,160,0,405.16075239982456,,405.1062431996688,5,405.16075239982456,405.16075239982456,0.036032500211149454,407.0961954998784,[-0.07],[-0.0525],[1],[0],[0],[1.9554936001077294],['target'],051461,001,2024-10-10_14h55.34.282,untitled,2024.1.5,None,2024-10-10 14h55.40.168871 +0530,
161,0,161,0,407.20975029980764,,407.10340699972585,10,407.20975029980764,407.20975029980764,0.08067220030352473,409.2291929000057,[0.055],[-0.3325],[1],[0],[0],[2.045992400031537],['target'],051461,001,2024-10-10_14h55.34.282,untitled,2024.1.5,None,2024-10-10 14h55.40.168871 +0530,
162,0,162,0,409.34304590011016,,409.2380216997117,10,409.34304590011016,409.34304590011016,0.07281380007043481,412.6992411999963,[0.19875],[0.35375],[1],[0],[0],[3.389232899993658],['target'],051461,001,2024-10-10_14h55.34.282,untitled,2024.1.5,None,2024-10-10 14h55.40.168871 +0530,
163,0,163,0,412.8086926001124,,412.72028689971194,5,412.8086926001124,412.8086926001124,0.06745440000668168,414.1632415000349,[0.09],[0.3825],[1],[0],[0],[1.3790762000717223],['target'],051461,001,2024-10-10_14h55.34.282,untitled,2024.1.5,None,2024-10-10 14h55.40.168871 +0530,
164,0,164,0,414.3085346999578,,414.1773000997491,10,414.3085346999578,414.3085346999578,0.09825879987329245,416.817466000095,[-0.40125],[-0.2625],[1],[0],[0],[2.5449403999373317],['target'],051461,001,2024-10-10_14h55.34.282,untitled,2024.1.5,None,2024-10-10 14h55.40.168871 +0530,
165,0,165,0,416.95780849969015,,416.84251129999757,5,416.95780849969015,416.95780849969015,0.09461389994248748,418.49503260012716,[0.1525],[0.2425],[1],[0],[0],[1.5624334001913667],['target'],051461,001,2024-10-10_14h55.34.282,untitled,2024.1.5,None,2024-10-10 14h55.40.168871 +0530,
166,0,166,0,418.5741546996869,,418.5082633998245,5,418.5741546996869,418.5741546996869,0.04892829991877079,419.91080829966813,[-0.27],[0.075],[1],[0],[0],[1.356598099693656],['target'],051461,001,2024-10-10_14h55.34.282,untitled,2024.1.5,None,2024-10-10 14h55.40.168871 +0530,
167,0,167,0,419.99080599984154,,419.9244649000466,5,419.99080599984154,419.99080599984154,0.04562859982252121,421.32600429980084,[-0.265],[0.03375],[1],[0],[0],[1.3593144998885691],['target'],051461,001,2024-10-10_14h55.34.282,untitled,2024.1.5,None,2024-10-10 14h55.40.168871 +0530,
168,0,168,0,421.42341759987175,,421.3329819999635,10,421.42341759987175,421.42341759987175,0.0661158999428153,423.1095663998276,[-0.1525],[0.21625],[1],[0],[0],[1.7111626998521388],['target'],051461,001,2024-10-10_14h55.34.282,untitled,2024.1.5,None,2024-10-10 14h55.40.168871 +0530,
169,0,169,0,423.240094400011,,423.12163199996576,10,423.240094400011,423.240094400011,0.09591699996963143,426.05903649982065,[0.49375],[0.3225],[1],[0],[0],[2.8443167000077665],['target'],051461,001,2024-10-10_14h55.34.282,untitled,2024.1.5,None,2024-10-10 14h55.40.168871 +0530,
170,0,170,0,426.1892548999749,,426.0721521000378,10,426.1892548999749,426.1892548999749,0.08595959981903434,429.6912964996882,[0.185],[-0.23125],[1],[0],[0],[3.5362346000038087],['target'],051461,001,2024-10-10_14h55.34.282,untitled,2024.1.5,None,2024-10-10 14h55.40.168871 +0530,
171,0,171,0,429.7548230998218,,429.70187899982557,5,429.7548230998218,429.7548230998218,0.03556529991328716,431.8104224000126,[-0.295],[0.195],[1],[0],[0],[2.074466499965638],[],051461,001,2024-10-10_14h55.34.282,untitled,2024.1.5,None,2024-10-10 14h55.40.168871 +0530,
172,0,172,0,431.97094069980085,,431.82525249989703,10,431.97094069980085,431.97094069980085,0.11309209978207946,433.52562969969586,[-0.38],[0.135],[1],[0],[0],[1.588941799942404],[],051461,001,2024-10-10_14h55.34.282,untitled,2024.1.5,None,2024-10-10 14h55.40.168871 +0530,
173,0,173,0,433.6372301997617,,433.5453268000856,5,433.6372301997617,433.6372301997617,0.059043300338089466,436.87244259985164,[-0.26875],[-0.39125],[1],[0],[0],[3.270532200112939],[],051461,001,2024-10-10_14h55.34.282,untitled,2024.1.5,None,2024-10-10 14h55.40.168871 +0530,
174,0,174,0,436.95311059989035,,436.88047209987417,5,436.95311059989035,436.95311059989035,0.046044399961829185,438.9403753001243,[0.34125],[0.35125],[1],[0],[0],[2.0149087999016047],['target'],051461,001,2024-10-10_14h55.34.282,untitled,2024.1.5,None,2024-10-10 14h55.40.168871 +0530,
175,0,175,0,439.0541656999849,,438.9532419000752,5,439.0541656999849,439.0541656999849,0.05859409971162677,440.9563563996926,[0.145],[-0.30625],[1],[0],[0],[1.9472930999472737],['target'],051461,001,2024-10-10_14h55.34.282,untitled,2024.1.5,None,2024-10-10 14h55.40.168871 +0530,
176,0,176,0,441.05228479998186,,440.96968459989876,5,441.05228479998186,441.05228479998186,0.05681299977004528,442.8427674998529,[0.3675],[-0.38875],[1],[0],[0],[1.8188455002382398],['target'],051461,001,2024-10-10_14h55.34.282,untitled,2024.1.5,None,2024-10-10 14h55.40.168871 +0530,
177,0,177,0,442.9849991998635,,442.8685480998829,10,442.9849991998635,442.9849991998635,0.09596370020881295,446.40363699989393,[0.0975],[0.11875],[1],[0],[0],[3.4443303998559713],['target'],051461,001,2024-10-10_14h55.34.282,untitled,2024.1.5,None,2024-10-10 14h55.40.168871 +0530,
178,0,178,0,446.4853965998627,,446.41268179984763,5,446.4853965998627,446.4853965998627,0.04502250021323562,448.67087080003694,[-0.33125],[-0.25875],[1],[0],[0],[2.214035500306636],['target'],051461,001,2024-10-10_14h55.34.282,untitled,2024.1.5,None,2024-10-10 14h55.40.168871 +0530,
179,0,179,0,448.7504707998596,,448.6841982998885,5,448.7504707998596,448.7504707998596,0.04733020020648837,450.83741209981963,[-0.22625],[0.21125],[1],[0],[0],[2.1083805998787284],['target'],051461,001,2024-10-10_14h55.34.282,untitled,2024.1.5,None,2024-10-10 14h55.40.168871 +0530,
180,0,180,0,450.96759080002084,,450.8502845996991,10,450.96759080002084,450.96759080002084,0.08102620020508766,452.5521228997968,[0.2225],[0.04375],[1],[0],[0],[1.6236617998220026],['target'],051461,001,2024-10-10_14h55.34.282,untitled,2024.1.5,None,2024-10-10 14h55.40.168871 +0530,
181,0,181,0,452.68284799996763,,452.55987560003996,10,452.68284799996763,452.68284799996763,0.08432749984785914,454.5016761999577,[0.43875],[0.35125],[1],[0],[0],[1.85840559983626],['target'],051461,001,2024-10-10_14h55.34.282,untitled,2024.1.5,None,2024-10-10 14h55.40.168871 +0530,
182,0,182,0,454.56548300012946,,454.50962569983676,5,454.56548300012946,454.56548300012946,0.034975099842995405,456.28788310009986,[-0.17875],[-0.0375],[1],[0],[0],[1.7437617997638881],['target'],051461,001,2024-10-10_14h55.34.282,untitled,2024.1.5,None,2024-10-10 14h55.40.168871 +0530,
183,0,183,0,456.38175929989666,,456.3006488000974,5,456.38175929989666,456.38175929989666,0.05863650003448129,458.018045200035,[-0.115],[-0.22375],[1],[0],[0],[1.6604681997559965],['target'],051461,001,2024-10-10_14h55.34.282,untitled,2024.1.5,None,2024-10-10 14h55.40.168871 +0530,
184,0,184,0,458.16483119968325,,458.03144829999655,10,458.16483119968325,458.16483119968325,0.1030541998334229,459.7875077999197,[-0.29],[0.25125],[1],[0],[0],[1.6557691995985806],['target'],051461,001,2024-10-10_14h55.34.282,untitled,2024.1.5,None,2024-10-10 14h55.40.168871 +0530,
185,0,185,0,459.880778899882,,459.80915069999173,5,459.880778899882,459.880778899882,0.05862280027940869,462.0511607998051,[-0.05125],[0.4725],[1],[0],[0],[2.186173899564892],['target'],051461,001,2024-10-10_14h55.34.282,untitled,2024.1.5,None,2024-10-10 14h55.40.168871 +0530,
186,0,186,0,462.1303638997488,,462.0644950000569,5,462.1303638997488,462.1303638997488,0.048460999969393015,465.7667014999315,[0.16375],[-0.4025],[1],[0],[0],[3.6563770002685487],[],051461,001,2024-10-10_14h55.34.282,untitled,2024.1.5,None,2024-10-10 14h55.40.168871 +0530,
187,0,187,0,465.8626186000183,,465.78065799968317,5,465.8626186000183,465.8626186000183,0.05072759976610541,468.132469299715,[0.115],[0.45375],[1],[0],[0],[2.303685199934989],['target'],051461,001,2024-10-10_14h55.34.282,untitled,2024.1.5,None,2024-10-10 14h55.40.168871 +0530,
188,0,188,0,468.2623598999344,,468.14517949987203,10,468.2623598999344,468.2623598999344,0.08369070012122393,470.7311729998328,[0.41125],[0.0225],[1],[0],[0],[2.50561450002715],['target'],051461,001,2024-10-10_14h55.34.282,untitled,2024.1.5,None,2024-10-10 14h55.40.168871 +0530,
189,0,189,0,470.7949554999359,,470.74237910006195,5,470.7949554999359,470.7949554999359,0.036552200093865395,473.3986146999523,[0.03875],[-0.33125],[1],[0],[0],[2.6216178997419775],['target'],051461,001,2024-10-10_14h55.34.282,untitled,2024.1.5,None,2024-10-10 14h55.40.168871 +0530,
190,0,190,0,473.52761070011184,,473.41146129975095,10,473.52761070011184,473.52761070011184,0.08469039993360639,476.7335210000165,[-0.46],[-0.45625],[1],[0],[0],[3.240227799862623],['target'],051461,001,2024-10-10_14h55.34.282,untitled,2024.1.5,None,2024-10-10 14h55.40.168871 +0530,
191,0,191,0,476.8933898997493,,476.7600738997571,10,476.8933898997493,476.8933898997493,0.10035970015451312,478.99538799980655,[0.2675],[-0.34],[1],[0],[0],[2.1394966999068856],['target'],051461,001,2024-10-10_14h55.34.282,untitled,2024.1.5,None,2024-10-10 14h55.40.168871 +0530,
192,0,192,0,479.0772167998366,,479.00100790010765,5,479.0772167998366,479.0772167998366,0.05107539985328913,481.24577739974484,[-0.43],[-0.32875],[1],[0],[0],[2.194145599845797],['target'],051461,001,2024-10-10_14h55.34.282,untitled,2024.1.5,None,2024-10-10 14h55.40.168871 +0530,
193,0,193,0,481.3759822999127,,481.2542846999131,10,481.3759822999127,481.3759822999127,0.08642660034820437,483.96043529966846,[-0.46875],[-0.4175],[1],[0],[0],[2.620985200162977],['target'],051461,001,2024-10-10_14h55.34.282,untitled,2024.1.5,None,2024-10-10 14h55.40.168871 +0530,
194,0,194,0,484.0423781997524,,483.9709572996944,5,484.0423781997524,484.0423781997524,0.04108350025489926,485.9296172996983,[0.28625],[-0.39125],[1],[0],[0],[1.9187378999777138],[],051461,001,2024-10-10_14h55.34.282,untitled,2024.1.5,None,2024-10-10 14h55.40.168871 +0530,
195,0,195,0,486.04209099989384,,485.9433130999096,5,486.04209099989384,486.04209099989384,0.05853070039302111,488.4775805999525,[0.4225],[0.375],[1],[0],[0],[2.4776074001565576],[],051461,001,2024-10-10_14h55.34.282,untitled,2024.1.5,None,2024-10-10 14h55.40.168871 +0530,
196,0,196,0,488.5913732997142,,488.4913006997667,10,488.5913732997142,488.5913732997142,0.07755099982023239,490.81043990002945,[-0.2725],[-0.38],[1],[0],[0],[2.2448119996115565],['target'],051461,001,2024-10-10_14h55.34.282,untitled,2024.1.5,None,2024-10-10 14h55.40.168871 +0530,
197,0,197,0,490.9235441996716,,490.82415489992127,5,490.9235441996716,490.9235441996716,0.06504330039024353,492.3625010997057,[0.205],[0.03],[1],[0],[0],[1.4766132002696395],['target'],051461,001,2024-10-10_14h55.34.282,untitled,2024.1.5,None,2024-10-10 14h55.40.168871 +0530,
198,0,198,0,492.440151900053,,492.37550149997696,5,492.440151900053,492.440151900053,0.043046100065112114,494.3602728000842,[0.425],[-0.22125],[1],[0],[0],[1.9437378998845816],['target'],051461,001,2024-10-10_14h55.34.282,untitled,2024.1.5,None,2024-10-10 14h55.40.168871 +0530,
199,0,199,0,494.4559522997588,,494.37573509989306,5,494.4559522997588,494.4559522997588,0.05193950003013015,497.2585422000848,[0.4575],[0.37625],[1],[0],[0],[2.8339686999097466],['target'],051461,001,2024-10-10_14h55.34.282,untitled,2024.1.5,None,2024-10-10 14h55.40.168871 +0530,
