trials.thisRepN,trials.thisTrialN,trials.thisN,trials.thisIndex,thisRow.t,notes,trial.started,num_distr,fixation.started,target.started,mouse.started,trial.stopped,mouse.x,mouse.y,mouse.leftButton,mouse.midButton,mouse.rightButton,mouse.time,mouse.clicked_name,participant,session,date,expName,psychopyVersion,frameRate,expStart
0,0,0,0,0.1292497,,0.0239912,10,0.1292497,0.1292497,0.0938986,2.6997899,[0.1625],[0.045],[1],[0],[0],[2.605439899954945],['target'],425233,1,2024-10-10_18h57.00.230,untitled,2024.1.5,None,2024-10-10 18h57.06.835661 +0530
1,0,1,0,2.7620463,,2.7086584,5,2.7620463,2.7620463,0.0333605,4.737637,[-0.04875],[-0.135],[1],[0],[0],[1.9954814002849162],['target'],425233,1,2024-10-10_18h57.00.230,untitled,2024.1.5,None,2024-10-10 18h57.06.835661 +0530
2,0,2,0,4.8788177,,4.7588225,5,4.8788177,4.8788177,0.0954525,6.8004109,[-0.29375],[-0.46625],[1],[0],[0],[1.948867500294],['target'],425233,1,2024-10-10_18h57.00.230,untitled,2024.1.5,None,2024-10-10 18h57.06.835661 +0530
3,0,3,0,6.8951446,,6.8182528,5,6.8951446,6.8951446,0.0524499,8.8321896,[0.25125],[-0.39875],[1],[0],[0],[1.9635885995812714],['target'],425233,1,2024-10-10_18h57.00.230,untitled,2024.1.5,None,2024-10-10 18h57.06.835661 +0530
4,0,4,0,8.9610774,,8.84872,10,8.9610774,8.9610774,0.0774175,10.4795554,[0.0375],[-0.2475],[1],[0],[0],[1.5565491002053022],['target'],425233,1,2024-10-10_18h57.00.230,untitled,2024.1.5,None,2024-10-10 18h57.06.835661 +0530
5,0,5,0,10.5630408,,10.4867074,5,10.5630408,10.5630408,0.038324,12.4479435,[-0.435],[0.36875],[1],[0],[0],[1.9233651999384165],['target'],425233,1,2024-10-10_18h57.00.230,untitled,2024.1.5,None,2024-10-10 18h57.06.835661 +0530
6,0,6,0,12.5435951,,12.4619999,5,12.5435951,12.5435951,0.0537724,14.6484708,[0.035],[-0.455],[1],[0],[0],[2.1358670997433364],['target'],425233,1,2024-10-10_18h57.00.230,untitled,2024.1.5,None,2024-10-10 18h57.06.835661 +0530
7,0,7,0,14.7599998,,14.6653357,10,14.7599998,14.7599998,0.0619329,16.4452502,[-0.15],[-0.175],[1],[0],[0],[1.7188197998329997],['target'],425233,1,2024-10-10_18h57.00.230,untitled,2024.1.5,None,2024-10-10 18h57.06.835661 +0530
8,0,8,0,16.5592687,,16.4541846,10,16.5592687,16.5592687,0.0662224,18.8616119,[0.2625],[-0.30625],[1],[0],[0],[2.3421249999664724],['target'],425233,1,2024-10-10_18h57.00.230,untitled,2024.1.5,None,2024-10-10 18h57.06.835661 +0530
9,0,9,0,18.941899,,18.8702464,5,18.941899,18.941899,0.0431323,20.8773428,[-0.12625],[0.25],[1],[0],[0],[1.9653507000766695],['target'],425233,1,2024-10-10_18h57.00.230,untitled,2024.1.5,None,2024-10-10 18h57.06.835661 +0530
10,0,10,0,20.941102,,20.8845425,5,20.941102,20.941102,0.0407051,22.8608571,[0.4725],[0.27],[1],[0],[0],[1.936370000243187],['target'],425233,1,2024-10-10_18h57.00.230,untitled,2024.1.5,None,2024-10-10 18h57.06.835661 +0530
11,0,11,0,23.0243399,,22.874448,10,23.0243399,23.0243399,0.1032689,26.2785399,[-0.20875],[0.20375],[1],[0],[0],[3.3034537001512945],['target'],425233,1,2024-10-10_18h57.00.230,untitled,2024.1.5,None,2024-10-10 18h57.06.835661 +0530
12,0,12,0,26.4400594,,26.2967562,10,26.4400594,26.4400594,0.0959104,29.3095711,[-0.1875],[-0.28125],[1],[0],[0],[2.920175200328231],['target'],425233,1,2024-10-10_18h57.00.230,untitled,2024.1.5,None,2024-10-10 18h57.06.835661 +0530
13,0,13,0,29.3896309,,29.3181216,5,29.3896309,29.3896309,0.0446277,31.4434698,[0.26625],[0.345],[1],[0],[0],[2.0812037996947765],['target'],425233,1,2024-10-10_18h57.00.230,untitled,2024.1.5,None,2024-10-10 18h57.06.835661 +0530
14,0,14,0,31.55574,,31.4587937,5,31.55574,31.55574,0.0671823,33.5417548,[0.31875],[0.24875],[1],[0],[0],[2.0184070002287626],['target'],425233,1,2024-10-10_18h57.00.230,untitled,2024.1.5,None,2024-10-10 18h57.06.835661 +0530
15,0,15,0,33.671901,,33.5547885,10,33.671901,33.671901,0.0891396,35.2744222,[-0.2675],[-0.41875],[1],[0],[0],[1.6336480001918972],['target'],425233,1,2024-10-10_18h57.00.230,untitled,2024.1.5,None,2024-10-10 18h57.06.835661 +0530
16,0,16,0,35.3386472,,35.2813725,5,35.3386472,35.3386472,0.0301245,37.2413129,[0.20125],[0.3325],[1],[0],[0],[1.930371900089085],['target'],425233,1,2024-10-10_18h57.00.230,untitled,2024.1.5,None,2024-10-10 18h57.06.835661 +0530
17,0,17,0,37.3709947,,37.253006,10,37.3709947,37.3709947,0.0954705,39.4228009,[-0.2725],[-0.02625],[1],[0],[0],[2.077030499931425],['target'],425233,1,2024-10-10_18h57.00.230,untitled,2024.1.5,None,2024-10-10 18h57.06.835661 +0530
18,0,18,0,39.5370188,,39.4318846,10,39.5370188,39.5370188,0.0791618,41.5055308,[0.11375],[-0.3625],[1],[0],[0],[1.9957849001511931],['target'],425233,1,2024-10-10_18h57.00.230,untitled,2024.1.5,None,2024-10-10 18h57.06.835661 +0530
19,0,19,0,41.5698936,,41.5126077,5,41.5698936,41.5698936,0.0356081,43.6720237,[0.45375],[0.31875],[1],[0],[0],[2.124456299934536],['target'],425233,1,2024-10-10_18h57.00.230,untitled,2024.1.5,None,2024-10-10 18h57.06.835661 +0530
20,0,20,0,43.7692037,,43.6796918,10,43.7692037,43.7692037,0.0617034,46.4714432,[-0.25],[-0.44],[1],[0],[0],[2.730831699911505],['target'],425233,1,2024-10-10_18h57.00.230,untitled,2024.1.5,None,2024-10-10 18h57.06.835661 +0530
21,0,21,0,46.6021982,,46.4801928,10,46.6021982,46.6021982,0.0903744,49.1037216,[-0.40375],[0.43],[1],[0],[0],[2.534551499877125],['target'],425233,1,2024-10-10_18h57.00.230,untitled,2024.1.5,None,2024-10-10 18h57.06.835661 +0530
22,0,22,0,49.2181743,,49.1111416,10,49.2181743,49.2181743,0.0693058,51.2400414,[0.24875],[0.45],[1],[0],[0],[2.06006950000301],['target'],425233,1,2024-10-10_18h57.00.230,untitled,2024.1.5,None,2024-10-10 18h57.06.835661 +0530
23,0,23,0,51.3340226,,51.2638575,5,51.3340226,51.3340226,0.0509353,52.521174,[0.0925],[0.415],[1],[0],[0],[1.208785300143063],['target'],425233,1,2024-10-10_18h57.00.230,untitled,2024.1.5,None,2024-10-10 18h57.06.835661 +0530
24,0,24,0,52.6334454,,52.5351508,5,52.6334454,52.6334454,0.0644349,54.5562595,[0.48125],[0.08],[1],[0],[0],[1.9593873000703752],['target'],425233,1,2024-10-10_18h57.00.230,untitled,2024.1.5,None,2024-10-10 18h57.06.835661 +0530
25,0,25,0,54.6837958,,54.570048,10,54.6837958,54.6837958,0.0769378,56.5566986,[0.2575],[0.4925],[1],[0],[0],[1.9110993999056518],['target'],425233,1,2024-10-10_18h57.00.230,untitled,2024.1.5,None,2024-10-10 18h57.06.835661 +0530
26,0,26,0,56.6831076,,56.5773568,5,56.6831076,56.6831076,0.0929681,58.6714273,[-0.21375],[-0.33625],[1],[0],[0],[2.0036618998274207],['target'],425233,1,2024-10-10_18h57.00.230,untitled,2024.1.5,None,2024-10-10 18h57.06.835661 +0530
27,0,27,0,58.7659976,,58.6842142,5,58.7659976,58.7659976,0.0539142,60.5522163,[0.4375],[0.425],[1],[0],[0],[1.8156723999418318],['target'],425233,1,2024-10-10_18h57.00.230,untitled,2024.1.5,None,2024-10-10 18h57.06.835661 +0530
28,0,28,0,60.6652526,,60.5654267,5,60.6652526,60.6652526,0.0684599,62.3525472,[0.10375],[-0.005],[1],[0],[0],[1.7213551998138428],['target'],425233,1,2024-10-10_18h57.00.230,untitled,2024.1.5,None,2024-10-10 18h57.06.835661 +0530
29,0,29,0,62.4650111,,62.367158,5,62.4650111,62.4650111,0.0655921,64.2384561,[-0.475],[0.4125],[1],[0],[0],[1.8072951999492943],['target'],425233,1,2024-10-10_18h57.00.230,untitled,2024.1.5,None,2024-10-10 18h57.06.835661 +0530
30,0,30,0,64.3320028,,64.2524746,5,64.3320028,64.3320028,0.0530559,65.7507942,[0.3275],[0.2525],[1],[0],[0],[1.4469940001145005],['target'],425233,1,2024-10-10_18h57.00.230,untitled,2024.1.5,None,2024-10-10 18h57.06.835661 +0530
31,0,31,0,65.8809981,,65.7644016,10,65.8809981,65.8809981,0.0710909,67.6181119,[-0.2475],[0.25625],[1],[0],[0],[1.7863438003696501],['target'],425233,1,2024-10-10_18h57.00.230,untitled,2024.1.5,None,2024-10-10 18h57.06.835661 +0530
32,0,32,0,67.6973138,,67.6296976,5,67.6973138,67.6973138,0.0380934,69.433694,[0.095],[-0.0175],[1],[0],[0],[1.7683941000141203],['target'],425233,1,2024-10-10_18h57.00.230,untitled,2024.1.5,None,2024-10-10 18h57.06.835661 +0530
33,0,33,0,69.5633343,,69.4469536,10,69.5633343,69.5633343,0.0798867,71.6981871,[-0.3925],[-0.1875],[1],[0],[0],[2.174952700268477],['target'],425233,1,2024-10-10_18h57.00.230,untitled,2024.1.5,None,2024-10-10 18h57.06.835661 +0530
34,0,34,0,71.8127371,,71.7056463,10,71.8127371,71.8127371,0.0689504,73.1557,[-0.02375],[0.1725],[1],[0],[0],[1.3804479003883898],['target'],425233,1,2024-10-10_18h57.00.230,untitled,2024.1.5,None,2024-10-10 18h57.06.835661 +0530
35,0,35,0,73.2793446,,73.1837737,5,73.2793446,73.2793446,0.0789647,74.499793,[0.2675],[0.3025],[1],[0],[0],[1.2430418999865651],['target'],425233,1,2024-10-10_18h57.00.230,untitled,2024.1.5,None,2024-10-10 18h57.06.835661 +0530
36,0,36,0,74.628239,,74.5110976,10,74.628239,74.628239,0.0873304,77.9133923,[0.09125],[-0.145],[1],[0],[0],[3.3173512001521885],['target'],425233,1,2024-10-10_18h57.00.230,untitled,2024.1.5,None,2024-10-10 18h57.06.835661 +0530
37,0,37,0,78.011161,,77.9203973,10,78.011161,78.011161,0.0665038,79.4464999,[0.2075],[0.31125],[1],[0],[0],[1.4603677997365594],['target'],425233,1,2024-10-10_18h57.00.230,untitled,2024.1.5,None,2024-10-10 18h57.06.835661 +0530
38,0,38,0,79.5302911,,79.4541679,5,79.5302911,79.5302911,0.0421412,80.8292814,[-0.19],[0.32625],[1],[0],[0],[1.3341292003169656],['target'],425233,1,2024-10-10_18h57.00.230,untitled,2024.1.5,None,2024-10-10 18h57.06.835661 +0530
39,0,39,0,80.9435289,,80.837083,10,80.9435289,80.9435289,0.0654654,83.2114305,[0.28875],[-0.11],[1],[0],[0],[2.311030900105834],['target'],425233,1,2024-10-10_18h57.00.230,untitled,2024.1.5,None,2024-10-10 18h57.06.835661 +0530
40,0,40,0,83.2764217,,83.218745,5,83.2764217,83.2764217,0.0325962,84.6498346,[0.1075],[0.4475],[1],[0],[0],[1.3998018000274897],['target'],425233,1,2024-10-10_18h57.00.230,untitled,2024.1.5,None,2024-10-10 18h57.06.835661 +0530
41,0,41,0,84.7264549,,84.6600968,5,84.7264549,84.7264549,0.0363371,85.9109287,[0.27875],[0.3425],[1],[0],[0],[1.2163994000293314],['target'],425233,1,2024-10-10_18h57.00.230,untitled,2024.1.5,None,2024-10-10 18h57.06.835661 +0530
42,0,42,0,86.0090698,,85.916916,10,86.0090698,86.0090698,0.0625204,89.8942794,[0.48],[0.19625],[1],[0],[0],[3.915760099887848],['target'],425233,1,2024-10-10_18h57.00.230,untitled,2024.1.5,None,2024-10-10 18h57.06.835661 +0530
43,0,43,0,89.975553,,89.9030104,5,89.975553,89.975553,0.0488985,91.5967522,[-0.47875],[0.165],[1],[0],[0],[1.6457211002707481],['target'],425233,1,2024-10-10_18h57.00.230,untitled,2024.1.5,None,2024-10-10 18h57.06.835661 +0530
44,0,44,0,91.7084746,,91.6102762,5,91.7084746,91.7084746,0.0681128,93.7127771,[-0.0275],[0.46125],[1],[0],[0],[2.0368025000207126],['target'],425233,1,2024-10-10_18h57.00.230,untitled,2024.1.5,None,2024-10-10 18h57.06.835661 +0530
45,0,45,0,93.7905258,,93.7253458,5,93.7905258,93.7905258,0.0412822,95.57693,[0.23125],[-0.24875],[1],[0],[0],[1.8120566997677088],['target'],425233,1,2024-10-10_18h57.00.230,untitled,2024.1.5,None,2024-10-10 18h57.06.835661 +0530
46,0,46,0,95.6902177,,95.5893733,5,95.6902177,95.6902177,0.0701645,97.9117289,[-0.37],[-0.14125],[1],[0],[0],[2.253982299938798],['target'],425233,1,2024-10-10_18h57.00.230,untitled,2024.1.5,None,2024-10-10 18h57.06.835661 +0530
47,0,47,0,98.0230624,,97.9306569,5,98.0230624,98.0230624,0.0627802,100.0260274,[-0.09125],[-0.28],[1],[0],[0],[2.0351220001466572],['target'],425233,1,2024-10-10_18h57.00.230,untitled,2024.1.5,None,2024-10-10 18h57.06.835661 +0530
48,0,48,0,100.106063,,100.0394791,5,100.106063,100.106063,0.049117,101.8254957,[0.2075],[0.06625],[1],[0],[0],[1.740327600389719],['target'],425233,1,2024-10-10_18h57.00.230,untitled,2024.1.5,None,2024-10-10 18h57.06.835661 +0530
49,0,49,0,101.9723266,,101.8406999,10,101.9723266,101.9723266,0.1014792,103.6114246,[0.41375],[0.33125],[1],[0],[0],[1.6738879000768065],['target'],425233,1,2024-10-10_18h57.00.230,untitled,2024.1.5,None,2024-10-10 18h57.06.835661 +0530
50,0,50,0,103.7210797,,103.6336428,5,103.7210797,103.7210797,0.0570669,105.2586455,[0.29625],[0.07375],[1],[0],[0],[1.5714726001024246],['target'],425233,1,2024-10-10_18h57.00.230,untitled,2024.1.5,None,2024-10-10 18h57.06.835661 +0530
51,0,51,0,105.3381233,,105.2721899,5,105.3381233,105.3381233,0.044159,106.5748574,[0.22375],[0.07375],[1],[0],[0],[1.262243699748069],['target'],425233,1,2024-10-10_18h57.00.230,untitled,2024.1.5,None,2024-10-10 18h57.06.835661 +0530
52,0,52,0,106.7210905,,106.5896371,10,106.7210905,106.7210905,0.0991446,108.1153773,[0.07125],[0.39],[1],[0],[0],[1.4276638999581337],['target'],425233,1,2024-10-10_18h57.00.230,untitled,2024.1.5,None,2024-10-10 18h57.06.835661 +0530
53,0,53,0,108.2871406,,108.1426026,10,108.2871406,108.2871406,0.1141455,111.2717484,[0.4625],[0.2675],[1],[0],[0],[3.0202342998236418],['target'],425233,1,2024-10-10_18h57.00.230,untitled,2024.1.5,None,2024-10-10 18h57.06.835661 +0530
54,0,54,0,111.3361997,,111.2770658,5,111.3361997,111.3361997,0.0282729,112.6898937,[-0.04625],[0.39],[1],[0],[0],[1.3846680000424385],['target'],425233,1,2024-10-10_18h57.00.230,untitled,2024.1.5,None,2024-10-10 18h57.06.835661 +0530
55,0,55,0,112.7690885,,112.7034045,5,112.7690885,112.7690885,0.048118,114.2240261,[0.205],[0.1575],[1],[0],[0],[1.4758017999120057],['target'],425233,1,2024-10-10_18h57.00.230,untitled,2024.1.5,None,2024-10-10 18h57.06.835661 +0530
56,0,56,0,114.3525334,,114.2379578,10,114.3525334,114.3525334,0.0708527,115.6049507,[0.19375],[0.39875],[1],[0],[0],[1.2981556002050638],['target'],425233,1,2024-10-10_18h57.00.230,untitled,2024.1.5,None,2024-10-10 18h57.06.835661 +0530
57,0,57,0,115.6851092,,115.6169023,5,115.6851092,115.6851092,0.0548691,117.4890234,[-0.31125],[0.1025],[1],[0],[0],[1.8196236998774111],['target'],425233,1,2024-10-10_18h57.00.230,untitled,2024.1.5,None,2024-10-10 18h57.06.835661 +0530
58,0,58,0,117.6297837,,117.5068908,10,117.6297837,117.6297837,0.0746971,121.7764207,[-0.3375],[0.44625],[1],[0],[0],[4.1967162997461855],['target'],425233,1,2024-10-10_18h57.00.230,untitled,2024.1.5,None,2024-10-10 18h57.06.835661 +0530
59,0,59,0,121.9172396,,121.8018566,10,121.9172396,121.9172396,0.0902485,124.4207052,[0.38375],[-0.11],[1],[0],[0],[2.532947199884802],['target'],425233,1,2024-10-10_18h57.00.230,untitled,2024.1.5,None,2024-10-10 18h57.06.835661 +0530
60,0,60,0,124.549745,,124.4344345,10,124.549745,124.549745,0.0789025,126.5364494,[-0.04875],[0.47625],[1],[0],[0],[2.0259277001023293],['target'],425233,1,2024-10-10_18h57.00.230,untitled,2024.1.5,None,2024-10-10 18h57.06.835661 +0530
61,0,61,0,126.6493071,,126.5445816,10,126.6493071,126.6493071,0.0690909,130.1730256,[-0.38],[-0.08875],[1],[0],[0],[3.55952259991318],['target'],425233,1,2024-10-10_18h57.00.230,untitled,2024.1.5,None,2024-10-10 18h57.06.835661 +0530
62,0,62,0,130.3320935,,130.1985196,10,130.3320935,130.3320935,0.1078684,132.5166325,[0.26],[-0.21375],[1],[0],[0],[2.2148698000237346],['target'],425233,1,2024-10-10_18h57.00.230,untitled,2024.1.5,None,2024-10-10 18h57.06.835661 +0530
63,0,63,0,132.6481753,,132.5226261,10,132.6481753,132.6481753,0.097654,134.9216372,[-0.0975],[-0.3325],[1],[0],[0],[2.3012695000506938],['target'],425233,1,2024-10-10_18h57.00.230,untitled,2024.1.5,None,2024-10-10 18h57.06.835661 +0530
64,0,64,0,135.0975788,,134.9422341,10,135.0975788,135.0975788,0.1217467,137.3493485,[0.4375],[0.17625],[1],[0],[0],[2.289582199882716],['target'],425233,1,2024-10-10_18h57.00.230,untitled,2024.1.5,None,2024-10-10 18h57.06.835661 +0530
65,0,65,0,137.4299576,,137.3572811,5,137.4299576,137.4299576,0.0446316,139.3219467,[0.25875],[-0.29375],[1],[0],[0],[1.919973500072956],['target'],425233,1,2024-10-10_18h57.00.230,untitled,2024.1.5,None,2024-10-10 18h57.06.835661 +0530
66,0,66,0,139.5462976,,139.3486194,10,139.5462976,139.5462976,0.1742128,140.9693522,[0.475],[0.32625],[1],[0],[0],[1.4520010999403894],['target'],425233,1,2024-10-10_18h57.00.230,untitled,2024.1.5,None,2024-10-10 18h57.06.835661 +0530
67,0,67,0,141.0623006,,140.9925762,5,141.0623006,141.0623006,0.057995,142.9993018,[0.03],[-0.39],[1],[0],[0],[1.9522746000438929],['target'],425233,1,2024-10-10_18h57.00.230,untitled,2024.1.5,None,2024-10-10 18h57.06.835661 +0530
68,0,68,0,143.0620464,,143.0084569,5,143.0620464,143.0620464,0.0382882,144.9823023,[-0.05125],[0.36],[1],[0],[0],[1.936561199836433],['target'],425233,1,2024-10-10_18h57.00.230,untitled,2024.1.5,None,2024-10-10 18h57.06.835661 +0530
69,0,69,0,145.0958122,,145.0014374,5,145.0958122,145.0958122,0.0592268,146.765385,[-0.125],[-0.10875],[1],[0],[0],[1.7060406003147364],['target'],425233,1,2024-10-10_18h57.00.230,untitled,2024.1.5,None,2024-10-10 18h57.06.835661 +0530
70,0,70,0,146.9115911,,146.7834991,10,146.9115911,146.9115911,0.0949161,148.6495258,[0.0575],[0.19375],[1],[0],[0],[1.7732321000657976],['target'],425233,1,2024-10-10_18h57.00.230,untitled,2024.1.5,None,2024-10-10 18h57.06.835661 +0530
71,0,71,0,148.8106333,,148.6664424,10,148.8106333,148.8106333,0.1060471,151.0971292,[-0.035],[0.0125],[1],[0],[0],[2.326636000070721],['target'],425233,1,2024-10-10_18h57.00.230,untitled,2024.1.5,None,2024-10-10 18h57.06.835661 +0530
72,0,72,0,151.2270488,,151.1059489,10,151.2270488,151.2270488,0.0740102,153.3957164,[-0.26875],[-0.21625],[1],[0],[0],[2.216926900204271],['target'],425233,1,2024-10-10_18h57.00.230,untitled,2024.1.5,None,2024-10-10 18h57.06.835661 +0530
73,0,73,0,153.4795025,,153.4040349,5,153.4795025,153.4795025,0.0407805,155.2296144,[0.4225],[0.30875],[1],[0],[0],[1.7857681000605226],['target'],425233,1,2024-10-10_18h57.00.230,untitled,2024.1.5,None,2024-10-10 18h57.06.835661 +0530
74,0,74,0,155.3762602,,155.2434217,10,155.3762602,155.3762602,0.1019327,158.4813608,[0.49125],[-0.09375],[1],[0],[0],[3.13894459977746],['target'],425233,1,2024-10-10_18h57.00.230,untitled,2024.1.5,None,2024-10-10 18h57.06.835661 +0530
75,0,75,0,158.6246763,,158.503975,10,158.6246763,158.6246763,0.0972026,161.593073,[-0.4075],[-0.23125],[1],[0],[0],[2.996534999925643],['target'],425233,1,2024-10-10_18h57.00.230,untitled,2024.1.5,None,2024-10-10 18h57.06.835661 +0530
76,0,76,0,161.7073338,,161.6051265,10,161.7073338,161.7073338,0.0756662,164.6922042,[0.4725],[-0.33625],[1],[0],[0],[3.0134382001124322],['target'],425233,1,2024-10-10_18h57.00.230,untitled,2024.1.5,None,2024-10-10 18h57.06.835661 +0530
77,0,77,0,164.8080514,,164.6996153,10,164.8080514,164.8080514,0.0667401,166.6101709,[-0.13125],[-0.0825],[1],[0],[0],[1.8440958000719547],['target'],425233,1,2024-10-10_18h57.00.230,untitled,2024.1.5,None,2024-10-10 18h57.06.835661 +0530
78,0,78,0,166.7066085,,166.6243676,5,166.7066085,166.7066085,0.0535305,168.8097021,[-0.43125],[0.17625],[1],[0],[0],[2.1357646002434194],['target'],425233,1,2024-10-10_18h57.00.230,untitled,2024.1.5,None,2024-10-10 18h57.06.835661 +0530
79,0,79,0,168.9560486,,168.8232115,10,168.9560486,168.9560486,0.1051161,171.3299017,[-0.455],[0.1425],[1],[0],[0],[2.4043712001293898],['target'],425233,1,2024-10-10_18h57.00.230,untitled,2024.1.5,None,2024-10-10 18h57.06.835661 +0530
80,0,80,0,171.4718567,,171.3571245,10,171.4718567,171.4718567,0.0946425,174.1410143,[-0.44875],[-0.1075],[1],[0],[0],[2.694490000139922],['target'],425233,1,2024-10-10_18h57.00.230,untitled,2024.1.5,None,2024-10-10 18h57.06.835661 +0530
81,0,81,0,174.2379448,,174.1497931,10,174.2379448,174.2379448,0.0610777,175.8969804,[-0.04125],[0.06875],[1],[0],[0],[1.6861952003091574],['target'],425233,1,2024-10-10_18h57.00.230,untitled,2024.1.5,None,2024-10-10 18h57.06.835661 +0530
82,0,82,0,176.0063387,,175.9171584,5,176.0063387,176.0063387,0.0595126,177.4407124,[-0.285],[0.10125],[1],[0],[0],[1.466849199961871],['target'],425233,1,2024-10-10_18h57.00.230,untitled,2024.1.5,None,2024-10-10 18h57.06.835661 +0530
83,0,83,0,177.5542122,,177.455244,5,177.5542122,177.5542122,0.0620313,179.2570221,[0.355],[0.1025],[1],[0],[0],[1.7434878000058234],['target'],425233,1,2024-10-10_18h57.00.230,untitled,2024.1.5,None,2024-10-10 18h57.06.835661 +0530
84,0,84,0,179.3363055,,179.2712289,5,179.3363055,179.3363055,0.0488629,181.0399549,[-0.2725],[-0.04375],[1],[0],[0],[1.723843399900943],['target'],425233,1,2024-10-10_18h57.00.230,untitled,2024.1.5,None,2024-10-10 18h57.06.835661 +0530
85,0,85,0,181.1693479,,181.0530425,10,181.1693479,181.1693479,0.0896916,183.6237209,[0.0225],[-0.3875],[1],[0],[0],[2.483592299744487],['target'],425233,1,2024-10-10_18h57.00.230,untitled,2024.1.5,None,2024-10-10 18h57.06.835661 +0530
86,0,86,0,183.7541347,,183.6446926,10,183.7541347,183.7541347,0.0753829,185.2552479,[-0.095],[0.23],[1],[0],[0],[1.5396430003456771],['target'],425233,1,2024-10-10_18h57.00.230,untitled,2024.1.5,None,2024-10-10 18h57.06.835661 +0530
87,0,87,0,185.3356107,,185.263409,5,185.3356107,185.3356107,0.0426491,187.7733208,[0.1975],[-0.3325],[1],[0],[0],[2.468212000094354],['target'],425233,1,2024-10-10_18h57.00.230,untitled,2024.1.5,None,2024-10-10 18h57.06.835661 +0530
88,0,88,0,187.9345388,,187.7871905,10,187.9345388,187.9345388,0.109942,189.6367001,[0.0275],[0.28625],[1],[0],[0],[1.7417117999866605],['target'],425233,1,2024-10-10_18h57.00.230,untitled,2024.1.5,None,2024-10-10 18h57.06.835661 +0530
89,0,89,0,189.7509551,,189.647426,10,189.7509551,189.7509551,0.0653884,191.038954,[0.00625],[0.28875],[1],[0],[0],[1.3273946000263095],['target'],425233,1,2024-10-10_18h57.00.230,untitled,2024.1.5,None,2024-10-10 18h57.06.835661 +0530
90,0,90,0,191.117023,,191.0561453,5,191.117023,191.117023,0.0489718,192.9707642,[0.20875],[-0.2925],[1],[0],[0],[1.8689584000967443],['target'],425233,1,2024-10-10_18h57.00.230,untitled,2024.1.5,None,2024-10-10 18h57.06.835661 +0530
91,0,91,0,193.0670858,,192.9838696,5,193.0670858,193.0670858,0.0597922,194.7018424,[0.06625],[0.25875],[1],[0],[0],[1.6610273998230696],['target'],425233,1,2024-10-10_18h57.00.230,untitled,2024.1.5,None,2024-10-10 18h57.06.835661 +0530
92,0,92,0,194.8162514,,194.7130593,5,194.8162514,194.8162514,0.0795434,196.6715662,[-0.06125],[-0.00125],[1],[0],[0],[1.8805815000087023],['target'],425233,1,2024-10-10_18h57.00.230,untitled,2024.1.5,None,2024-10-10 18h57.06.835661 +0530
93,0,93,0,196.7991774,,196.6853531,10,196.7991774,196.7991774,0.0790827,198.6681791,[-0.1375],[0.0875],[1],[0],[0],[1.9061481999233365],['target'],425233,1,2024-10-10_18h57.00.230,untitled,2024.1.5,None,2024-10-10 18h57.06.835661 +0530
94,0,94,0,198.7992557,,198.6761967,10,198.7992557,198.7992557,0.0918327,200.9338026,[-0.3975],[0.105],[1],[0],[0],[2.166897099930793],['target'],425233,1,2024-10-10_18h57.00.230,untitled,2024.1.5,None,2024-10-10 18h57.06.835661 +0530
95,0,95,0,201.0316471,,200.9410231,10,201.0316471,201.0316471,0.0672164,203.5695115,[0.3625],[0.45375],[1],[0],[0],[2.5619534999132156],['target'],425233,1,2024-10-10_18h57.00.230,untitled,2024.1.5,None,2024-10-10 18h57.06.835661 +0530
96,0,96,0,203.6480172,,203.5779345,5,203.6480172,203.6480172,0.0431167,205.9686879,[0.03125],[-0.30875],[1],[0],[0],[2.348373499698937],['target'],425233,1,2024-10-10_18h57.00.230,untitled,2024.1.5,None,2024-10-10 18h57.06.835661 +0530
97,0,97,0,206.0805466,,205.9845456,10,206.0805466,206.0805466,0.0701032,208.5859492,[0.0725],[-0.25],[1],[0],[0],[2.533411600161344],['target'],425233,1,2024-10-10_18h57.00.230,untitled,2024.1.5,None,2024-10-10 18h57.06.835661 +0530
98,0,98,0,208.7129887,,208.603831,5,208.7129887,208.7129887,0.0720975,210.5164688,[-0.29875],[0.12875],[1],[0],[0],[1.8433220000006258],['target'],425233,1,2024-10-10_18h57.00.230,untitled,2024.1.5,None,2024-10-10 18h57.06.835661 +0530
99,0,99,0,210.6458714,,210.5293279,10,210.6458714,210.6458714,0.082848,213.1476915,[0.385],[0.30375],[1],[0],[0],[2.5384427001699805],['target'],425233,1,2024-10-10_18h57.00.230,untitled,2024.1.5,None,2024-10-10 18h57.06.835661 +0530
100,0,100,0,213.2619409,,213.155768,10,213.2619409,213.2619409,0.0666738,215.3825864,[-0.12875],[-0.33125],[1],[0],[0],[2.160633400082588],['target'],425233,1,2024-10-10_18h57.00.230,untitled,2024.1.5,None,2024-10-10 18h57.06.835661 +0530
101,0,101,0,215.5116266,,215.3983285,10,215.5116266,215.5116266,0.0875892,217.4634132,[-0.255],[-0.24625],[1],[0],[0],[1.9798540999181569],['target'],425233,1,2024-10-10_18h57.00.230,untitled,2024.1.5,None,2024-10-10 18h57.06.835661 +0530
102,0,102,0,217.544652,,217.4719531,5,217.544652,217.544652,0.041514,219.5952948,[-0.025],[-0.1075],[1],[0],[0],[2.082886400166899],['target'],425233,1,2024-10-10_18h57.00.230,untitled,2024.1.5,None,2024-10-10 18h57.06.835661 +0530
103,0,103,0,219.6766876,,219.6058009,5,219.6766876,219.6766876,0.0423163,221.612598,[-0.3425],[-0.05625],[1],[0],[0],[1.9660789002664387],['target'],425233,1,2024-10-10_18h57.00.230,untitled,2024.1.5,None,2024-10-10 18h57.06.835661 +0530
104,0,104,0,221.6932162,,221.6250317,5,221.6932162,221.6932162,0.0434056,223.7779177,[-0.29],[0.44],[1],[0],[0],[2.112391000147909],['target'],425233,1,2024-10-10_18h57.00.230,untitled,2024.1.5,None,2024-10-10 18h57.06.835661 +0530
105,0,105,0,223.8591165,,223.78829,5,223.8591165,223.8591165,0.0411941,225.1460334,[-0.15625],[0.4625],[1],[0],[0],[1.3182206000201404],['target'],425233,1,2024-10-10_18h57.00.230,untitled,2024.1.5,None,2024-10-10 18h57.06.835661 +0530
106,0,106,0,225.2259726,,225.1546435,5,225.2259726,225.2259726,0.0372544,225.3448743,[-0.15625],[0.4625],[1],[0],[0],[0.15529269957914948],[],425233,1,2024-10-10_18h57.00.230,untitled,2024.1.5,None,2024-10-10 18h57.06.835661 +0530
107,0,107,0,225.4587469,,225.3504809,10,225.4587469,225.4587469,0.0697985,227.9103684,[0.2675],[-0.355],[1],[0],[0],[2.4905128004029393],['target'],425233,1,2024-10-10_18h57.00.230,untitled,2024.1.5,None,2024-10-10 18h57.06.835661 +0530
108,0,108,0,228.0586783,,227.9210345,10,228.0586783,228.0586783,0.1085784,229.711765,[-0.07625],[-0.29],[1],[0],[0],[1.6836043000221252],['target'],425233,1,2024-10-10_18h57.00.230,untitled,2024.1.5,None,2024-10-10 18h57.06.835661 +0530
109,0,109,0,229.8413299,,229.7260895,10,229.8413299,229.8413299,0.0863708,232.0099179,[-0.2],[0.15125],[1],[0],[0],[2.1989481998607516],['target'],425233,1,2024-10-10_18h57.00.230,untitled,2024.1.5,None,2024-10-10 18h57.06.835661 +0530
110,0,110,0,232.1073115,,232.0180804,10,232.1073115,232.1073115,0.0619586,235.176618,[-0.3075],[-0.3025],[1],[0],[0],[3.0973120001144707],['target'],425233,1,2024-10-10_18h57.00.230,untitled,2024.1.5,None,2024-10-10 18h57.06.835661 +0530
111,0,111,0,235.2569775,,235.1886156,5,235.2569775,235.2569775,0.0452775,237.5104783,[0.1625],[-0.10375],[1],[0],[0],[2.2787285996600986],['target'],425233,1,2024-10-10_18h57.00.230,untitled,2024.1.5,None,2024-10-10 18h57.06.835661 +0530
112,0,112,0,237.6223225,,237.5261193,5,237.6223225,237.6223225,0.0670025,239.4763864,[-0.23875],[-0.38875],[1],[0],[0],[1.8861852996051311],['target'],425233,1,2024-10-10_18h57.00.230,untitled,2024.1.5,None,2024-10-10 18h57.06.835661 +0530
113,0,113,0,239.590067,,239.4933337,5,239.590067,239.590067,0.0624396,241.1258571,[-0.19],[0.08],[1],[0],[0],[1.5729013001546264],['target'],425233,1,2024-10-10_18h57.00.230,untitled,2024.1.5,None,2024-10-10 18h57.06.835661 +0530
114,0,114,0,241.2888151,,241.1389913,10,241.2888151,241.2888151,0.1121782,243.3479015,[-0.25],[-0.26625],[1],[0],[0],[2.0984748997725546],['target'],425233,1,2024-10-10_18h57.00.230,untitled,2024.1.5,None,2024-10-10 18h57.06.835661 +0530
115,0,115,0,243.5214036,,243.3785984,10,243.5214036,243.5214036,0.1189585,245.8161184,[-0.3875],[-0.3625],[1],[0],[0],[2.3235661000944674],['target'],425233,1,2024-10-10_18h57.00.230,untitled,2024.1.5,None,2024-10-10 18h57.06.835661 +0530
116,0,116,0,245.9708696,,245.8417309,10,245.9708696,245.9708696,0.0991822,248.5077567,[-0.38875],[0.47375],[1],[0],[0],[2.56995760044083],['target'],425233,1,2024-10-10_18h57.00.230,untitled,2024.1.5,None,2024-10-10 18h57.06.835661 +0530
117,0,117,0,248.5869212,,248.5208831,5,248.5869212,248.5869212,0.0439604,250.1907525,[-0.49125],[0.145],[1],[0],[0],[1.6287622996605933],[],425233,1,2024-10-10_18h57.00.230,untitled,2024.1.5,None,2024-10-10 18h57.06.835661 +0530
118,0,118,0,250.3198434,,250.2044161,10,250.3198434,250.3198434,0.0851566,253.4472717,[-0.1725],[-0.45],[1],[0],[0],[3.1599293001927435],['target'],425233,1,2024-10-10_18h57.00.230,untitled,2024.1.5,None,2024-10-10 18h57.06.835661 +0530
119,0,119,0,253.6025651,,253.4679485,10,253.6025651,253.6025651,0.1125434,254.7903462,[-0.16875],[-0.445],[1],[0],[0],[1.213448700029403],['target'],425233,1,2024-10-10_18h57.00.230,untitled,2024.1.5,None,2024-10-10 18h57.06.835661 +0530
120,0,120,0,254.9187048,,254.805853,10,254.9187048,254.9187048,0.0897297,256.6699137,[-0.105],[0.06125],[1],[0],[0],[1.7765822000801563],['target'],425233,1,2024-10-10_18h57.00.230,untitled,2024.1.5,None,2024-10-10 18h57.06.835661 +0530
121,0,121,0,256.7180984,,256.6750985,5,256.7180984,256.7180984,0.0273159,258.9382589,[0.46875],[0.0425],[1],[0],[0],[2.2357583004049957],['target'],425233,1,2024-10-10_18h57.00.230,untitled,2024.1.5,None,2024-10-10 18h57.06.835661 +0530
122,0,122,0,259.0342614,,258.9525471,5,259.0342614,259.0342614,0.0608098,261.3275027,[-0.0125],[-0.33],[1],[0],[0],[2.3176815998740494],['target'],425233,1,2024-10-10_18h57.00.230,untitled,2024.1.5,None,2024-10-10 18h57.06.835661 +0530
123,0,123,0,261.4507999,,261.3494408,10,261.4507999,261.4507999,0.0801922,263.5352838,[-0.0125],[0.31625],[1],[0],[0],[2.1104029999114573],['target'],425233,1,2024-10-10_18h57.00.230,untitled,2024.1.5,None,2024-10-10 18h57.06.835661 +0530
124,0,124,0,263.6497322,,263.5433295,10,263.6497322,263.6497322,0.0731814,266.0861151,[-0.12875],[-0.18875],[1],[0],[0],[2.470380200073123],['target'],425233,1,2024-10-10_18h57.00.230,untitled,2024.1.5,None,2024-10-10 18h57.06.835661 +0530
125,0,125,0,266.1660159,,266.0988495,5,266.1660159,266.1660159,0.0411227,267.7354991,[0.23625],[0.17875],[1],[0],[0],[1.5988930999301374],['target'],425233,1,2024-10-10_18h57.00.230,untitled,2024.1.5,None,2024-10-10 18h57.06.835661 +0530
126,0,126,0,267.8326906,,267.7453806,5,267.8326906,267.8326906,0.0598738,269.636117,[-0.08375],[-0.4625],[1],[0],[0],[1.8323658998124301],['target'],425233,1,2024-10-10_18h57.00.230,untitled,2024.1.5,None,2024-10-10 18h57.06.835661 +0530
127,0,127,0,269.7325239,,269.6537705,5,269.7325239,269.7325239,0.0529735,271.1408161,[-0.17625],[0.19375],[1],[0],[0],[1.4363528997637331],['target'],425233,1,2024-10-10_18h57.00.230,untitled,2024.1.5,None,2024-10-10 18h57.06.835661 +0530
128,0,128,0,271.2816875,,271.160965,5,271.2816875,271.2816875,0.0931566,274.6496917,[-0.36375],[0.485],[1],[0],[0],[3.398590000346303],['target'],425233,1,2024-10-10_18h57.00.230,untitled,2024.1.5,None,2024-10-10 18h57.06.835661 +0530
129,0,129,0,274.7822237,,274.6583037,10,274.7822237,274.7822237,0.0828118,276.482708,[0.11875],[-0.09625],[1],[0],[0],[1.742618199903518],['target'],425233,1,2024-10-10_18h57.00.230,untitled,2024.1.5,None,2024-10-10 18h57.06.835661 +0530
130,0,130,0,276.5800762,,276.4968288,5,276.5800762,276.5800762,0.0581777,278.7338473,[0.445],[0.18875],[1],[0],[0],[2.1821015998721123],['target'],425233,1,2024-10-10_18h57.00.230,untitled,2024.1.5,None,2024-10-10 18h57.06.835661 +0530
131,0,131,0,278.8129491,,278.7470991,5,278.8129491,278.8129491,0.0486718,281.4304315,[0.1075],[-0.4075],[1],[0],[0],[2.6378458999097347],['target'],425233,1,2024-10-10_18h57.00.230,untitled,2024.1.5,None,2024-10-10 18h57.06.835661 +0530
132,0,132,0,281.4960569,,281.4381784,5,281.4960569,281.4960569,0.035652,284.1817521,[-0.0875],[0.4825],[1],[0],[0],[2.7086069001816213],['target'],425233,1,2024-10-10_18h57.00.230,untitled,2024.1.5,None,2024-10-10 18h57.06.835661 +0530
133,0,133,0,284.3114456,,284.1983818,10,284.3114456,284.3114456,0.0844356,285.8309341,[-0.225],[0.31],[1],[0],[0],[1.5509403003379703],['target'],425233,1,2024-10-10_18h57.00.230,untitled,2024.1.5,None,2024-10-10 18h57.06.835661 +0530
134,0,134,0,285.8940964,,285.8373723,5,285.8940964,285.8940964,0.0299644,287.868101,[-0.44375],[0.1475],[1],[0],[0],[2.000456999987364],['target'],425233,1,2024-10-10_18h57.00.230,untitled,2024.1.5,None,2024-10-10 18h57.06.835661 +0530
135,0,135,0,287.9939271,,287.8867067,10,287.9939271,287.9939271,0.0768914,291.2189091,[-0.12125],[-0.3],[1],[0],[0],[3.257096800021827],['target'],425233,1,2024-10-10_18h57.00.230,untitled,2024.1.5,None,2024-10-10 18h57.06.835661 +0530
136,0,136,0,291.394065,,291.2389791,10,291.394065,291.394065,0.1229587,293.6625696,[-0.14625],[0.31125],[1],[0],[0],[2.304243399761617],['target'],425233,1,2024-10-10_18h57.00.230,untitled,2024.1.5,None,2024-10-10 18h57.06.835661 +0530
137,0,137,0,293.7926715,,293.6696084,10,293.7926715,293.7926715,0.0825345,296.3156711,[-0.35125],[0.06375],[1],[0],[0],[2.563562999945134],['target'],425233,1,2024-10-10_18h57.00.230,untitled,2024.1.5,None,2024-10-10 18h57.06.835661 +0530
138,0,138,0,296.4585667,,296.3375999,10,296.4585667,296.4585667,0.0859199,298.879042,[-0.47125],[0.26],[1],[0],[0],[2.4590386999771],['target'],425233,1,2024-10-10_18h57.00.230,untitled,2024.1.5,None,2024-10-10 18h57.06.835661 +0530
139,0,139,0,298.9934148,,298.891764,10,298.9934148,298.9934148,0.0668476,301.7265002,[-0.3525],[-0.4175],[1],[0],[0],[2.7711784997954965],['target'],425233,1,2024-10-10_18h57.00.230,untitled,2024.1.5,None,2024-10-10 18h57.06.835661 +0530
140,0,140,0,301.8073436,,301.7344587,5,301.8073436,301.8073436,0.0423874,304.3437345,[0.22625],[0.2175],[1],[0],[0],[2.567638199776411],['target'],425233,1,2024-10-10_18h57.00.230,untitled,2024.1.5,None,2024-10-10 18h57.06.835661 +0530
141,0,141,0,304.456808,,304.3569783,5,304.456808,304.456808,0.0621511,307.059268,[0.16875],[0.29],[1],[0],[0],[2.643386600073427],['target'],425233,1,2024-10-10_18h57.00.230,untitled,2024.1.5,None,2024-10-10 18h57.06.835661 +0530
142,0,142,0,307.1728263,,307.0724357,10,307.1728263,307.1728263,0.0770727,308.4592012,[-0.08125],[0.3025],[1],[0],[0],[1.3128612004220486],['target'],425233,1,2024-10-10_18h57.00.230,untitled,2024.1.5,None,2024-10-10 18h57.06.835661 +0530
143,0,143,0,308.6057909,,308.4727528,10,308.6057909,308.6057909,0.1052872,310.3919291,[0.12],[-0.13125],[1],[0],[0],[1.81718419957906],['target'],425233,1,2024-10-10_18h57.00.230,untitled,2024.1.5,None,2024-10-10 18h57.06.835661 +0530
144,0,144,0,310.4883202,,310.4030698,5,310.4883202,310.4883202,0.0565486,312.3757331,[-0.31125],[0.3225],[1],[0],[0],[1.918687299825251],['target'],425233,1,2024-10-10_18h57.00.230,untitled,2024.1.5,None,2024-10-10 18h57.06.835661 +0530
145,0,145,0,312.5213786,,312.38983,10,312.5213786,312.5213786,0.0960947,314.9076454,[0.14375],[-0.48875],[1],[0],[0],[2.424801600165665],['target'],425233,1,2024-10-10_18h57.00.230,untitled,2024.1.5,None,2024-10-10 18h57.06.835661 +0530
146,0,146,0,315.0373635,,314.9203883,10,315.0373635,315.0373635,0.0839505,339.7349678,[-0.40375],[0.08],[1],[0],[0],[24.733577699866146],['target'],425233,1,2024-10-10_18h57.00.230,untitled,2024.1.5,None,2024-10-10 18h57.06.835661 +0530
147,0,147,0,339.8980222,,339.7440239,10,339.8980222,339.8980222,0.1232194,342.034676,[0.14125],[-0.245],[1],[0],[0],[2.1685958998277783],['target'],425233,1,2024-10-10_18h57.00.230,untitled,2024.1.5,None,2024-10-10 18h57.06.835661 +0530
148,0,148,0,342.1473522,,342.0432548,5,342.1473522,342.1473522,0.0615491,343.6169867,[-0.1875],[0.2175],[1],[0],[0],[1.5133191999047995],['target'],425233,1,2024-10-10_18h57.00.230,untitled,2024.1.5,None,2024-10-10 18h57.06.835661 +0530
149,0,149,0,343.6813856,,343.6264773,5,343.6813856,343.6813856,0.0344434,346.0343618,[0.4575],[0.44875],[1],[0],[0],[2.374384599737823],['target'],425233,1,2024-10-10_18h57.00.230,untitled,2024.1.5,None,2024-10-10 18h57.06.835661 +0530
150,0,150,0,346.1801087,,346.0477766,10,346.1801087,346.1801087,0.1048269,349.4677711,[0.06125],[0.2775],[1],[0],[0],[3.3180045997723937],['target'],425233,1,2024-10-10_18h57.00.230,untitled,2024.1.5,None,2024-10-10 18h57.06.835661 +0530
151,0,151,0,349.5959177,,349.4848122,10,349.5959177,349.5959177,0.08527,352.3338201,[-0.00375],[-0.18125],[1],[0],[0],[2.7656177999451756],['target'],425233,1,2024-10-10_18h57.00.230,untitled,2024.1.5,None,2024-10-10 18h57.06.835661 +0530
152,0,152,0,352.4283363,,352.348578,5,352.4283363,352.4283363,0.0650391,354.1556876,[-0.28875],[-0.3225],[1],[0],[0],[1.7431613001972437],['target'],425233,1,2024-10-10_18h57.00.230,untitled,2024.1.5,None,2024-10-10 18h57.06.835661 +0530
153,0,153,0,354.3279177,,354.1806319,10,354.3279177,354.3279177,0.1203039,355.729864,[-0.00375],[-0.1625],[1],[0],[0],[1.4344353000633419],['target'],425233,1,2024-10-10_18h57.00.230,untitled,2024.1.5,None,2024-10-10 18h57.06.835661 +0530
154,0,154,0,355.8286697,,355.7368739,10,355.8286697,355.8286697,0.0673046,358.1297269,[0.32375],[0.14125],[1],[0],[0],[2.326369700022042],['target'],425233,1,2024-10-10_18h57.00.230,untitled,2024.1.5,None,2024-10-10 18h57.06.835661 +0530
155,0,155,0,358.2103994,,358.1374878,5,358.2103994,358.2103994,0.0403219,359.8176569,[-0.04875],[0.365],[1],[0],[0],[1.6401736000552773],['target'],425233,1,2024-10-10_18h57.00.230,untitled,2024.1.5,None,2024-10-10 18h57.06.835661 +0530
156,0,156,0,359.8933076,,359.8312499,5,359.8933076,359.8933076,0.0411181,362.746179,[-0.36375],[-0.2325],[1],[0],[0],[2.875763999763876],['target'],425233,1,2024-10-10_18h57.00.230,untitled,2024.1.5,None,2024-10-10 18h57.06.835661 +0530
157,0,157,0,362.8928426,,362.7594983,10,362.8928426,362.8928426,0.1087113,365.7441108,[-0.29375],[-0.44],[1],[0],[0],[2.8790927003137767],['target'],425233,1,2024-10-10_18h57.00.230,untitled,2024.1.5,None,2024-10-10 18h57.06.835661 +0530
158,0,158,0,365.8258526,,365.7519063,5,365.8258526,365.8258526,0.0440944,369.6291269,[0.48875],[-0.44],[1],[0],[0],[3.8338522003032267],['target'],425233,1,2024-10-10_18h57.00.230,untitled,2024.1.5,None,2024-10-10 18h57.06.835661 +0530
159,0,159,0,369.7078412,,369.6466748,5,369.7078412,369.7078412,0.0400795,371.8967438,[-0.17],[0.21],[1],[0],[0],[2.211778299883008],['target'],425233,1,2024-10-10_18h57.00.230,untitled,2024.1.5,None,2024-10-10 18h57.06.835661 +0530
160,0,160,0,372.0572612,,371.9166977,10,372.0572612,372.0572612,0.1168284,373.8468456,[0.47],[-0.04125],[1],[0],[0],[1.8165135998278856],['target'],425233,1,2024-10-10_18h57.00.230,untitled,2024.1.5,None,2024-10-10 18h57.06.835661 +0530
161,0,161,0,373.9566188,,373.8627911,10,373.9566188,373.9566188,0.0704546,376.0422819,[0.4175],[0.175],[1],[0],[0],[2.1111158998683095],['target'],425233,1,2024-10-10_18h57.00.230,untitled,2024.1.5,None,2024-10-10 18h57.06.835661 +0530
162,0,162,0,376.1562524,,376.0514052,10,376.1562524,376.1562524,0.0724143,378.7750923,[0.37],[-0.08125],[1],[0],[0],[2.6524821002967656],['target'],425233,1,2024-10-10_18h57.00.230,untitled,2024.1.5,None,2024-10-10 18h57.06.835661 +0530
163,0,163,0,378.9055221,,378.7827974,10,378.9055221,378.9055221,0.0783725,380.6101231,[0.46375],[0.33875],[1],[0],[0],[1.7497763996943831],['target'],425233,1,2024-10-10_18h57.00.230,untitled,2024.1.5,None,2024-10-10 18h57.06.835661 +0530
164,0,164,0,380.7383182,,380.6189916,10,380.7383182,380.7383182,0.0807897,383.4755128,[-0.25125],[-0.245],[1],[0],[0],[2.776629999745637],['target'],425233,1,2024-10-10_18h57.00.230,untitled,2024.1.5,None,2024-10-10 18h57.06.835661 +0530
165,0,165,0,383.6223152,,383.4870487,10,383.6223152,383.6223152,0.0969409,385.9393538,[-0.05625],[-0.13875],[1],[0],[0],[2.3580467998981476],['target'],425233,1,2024-10-10_18h57.00.230,untitled,2024.1.5,None,2024-10-10 18h57.06.835661 +0530
166,0,166,0,386.0538471,,385.9481421,10,386.0538471,386.0538471,0.0707287,388.3934578,[-0.1425],[0.395],[1],[0],[0],[2.37543259980157],['target'],425233,1,2024-10-10_18h57.00.230,untitled,2024.1.5,None,2024-10-10 18h57.06.835661 +0530
167,0,167,0,388.4870335,,388.4157667,5,388.4870335,388.4870335,0.0500472,390.2568436,[-0.4325],[-0.18125],[1],[0],[0],[1.7937269997783005],['target'],425233,1,2024-10-10_18h57.00.230,untitled,2024.1.5,None,2024-10-10 18h57.06.835661 +0530
168,0,168,0,390.3859858,,390.2705132,10,390.3859858,390.3859858,0.0767943,393.1542923,[0.4475],[0.38375],[1],[0],[0],[2.810121600050479],['target'],425233,1,2024-10-10_18h57.00.230,untitled,2024.1.5,None,2024-10-10 18h57.06.835661 +0530
169,0,169,0,393.2688705,,393.1612247,10,393.2688705,393.2688705,0.0647946,395.338577,[-0.2425],[0.29125],[1],[0],[0],[2.1134123001247644],['target'],425233,1,2024-10-10_18h57.00.230,untitled,2024.1.5,None,2024-10-10 18h57.06.835661 +0530
170,0,170,0,395.4514123,,395.3473103,10,395.4514123,395.4514123,0.0783271,397.9100956,[0.1425],[-0.37375],[1],[0],[0],[2.4853946999646723],['target'],425233,1,2024-10-10_18h57.00.230,untitled,2024.1.5,None,2024-10-10 18h57.06.835661 +0530
171,0,171,0,398.0174185,,397.9269837,5,398.0174185,398.0174185,0.0616221,399.4213881,[-0.09625],[0.23375],[1],[0],[0],[1.4346711002290249],['target'],425233,1,2024-10-10_18h57.00.230,untitled,2024.1.5,None,2024-10-10 18h57.06.835661 +0530
172,0,172,0,399.5170986,,399.4384966,5,399.5170986,399.5170986,0.0504502,401.0586264,[0.03375],[0.345],[1],[0],[0],[1.5713439001701772],['target'],425233,1,2024-10-10_18h57.00.230,untitled,2024.1.5,None,2024-10-10 18h57.06.835661 +0530
173,0,173,0,401.2168988,,401.0861752,10,401.2168988,401.2168988,0.1029212,404.0025142,[-0.33125],[-0.2925],[1],[0],[0],[2.8181439000181854],['target'],425233,1,2024-10-10_18h57.00.230,untitled,2024.1.5,None,2024-10-10 18h57.06.835661 +0530
174,0,174,0,404.0826334,,404.0118048,5,404.0826334,404.0826334,0.0471806,405.6525928,[0.235],[0.09375],[1],[0],[0],[1.594816599972546],['target'],425233,1,2024-10-10_18h57.00.230,untitled,2024.1.5,None,2024-10-10 18h57.06.835661 +0530
175,0,175,0,405.7659453,,405.6598359,10,405.7659453,405.7659453,0.0739674,407.5846927,[0.105],[0.4175],[1],[0],[0],[1.851679400075227],['target'],425233,1,2024-10-10_18h57.00.230,untitled,2024.1.5,None,2024-10-10 18h57.06.835661 +0530
176,0,176,0,407.698692,,407.5934213,10,407.698692,407.698692,0.0682854,409.717768,[0.33375],[-0.18125],[1],[0],[0],[2.057201699819416],['target'],425233,1,2024-10-10_18h57.00.230,untitled,2024.1.5,None,2024-10-10 18h57.06.835661 +0530
177,0,177,0,409.8481755,,409.7266008,10,409.8481755,409.8481755,0.0811125,412.2336629,[0.0975],[-0.35125],[1],[0],[0],[2.4272010000422597],['target'],425233,1,2024-10-10_18h57.00.230,untitled,2024.1.5,None,2024-10-10 18h57.06.835661 +0530
178,0,178,0,412.3146171,,412.242137,5,412.3146171,412.3146171,0.0422875,414.6383824,[0.485],[0.0475],[1],[0],[0],[2.3539856001734734],['target'],425233,1,2024-10-10_18h57.00.230,untitled,2024.1.5,None,2024-10-10 18h57.06.835661 +0530
179,0,179,0,414.7634855,,414.6643149,10,414.7634855,414.7634855,0.0650769,416.348509,[-0.01625],[-0.0725],[1],[0],[0],[1.6235690996982157],['target'],425233,1,2024-10-10_18h57.00.230,untitled,2024.1.5,None,2024-10-10 18h57.06.835661 +0530
180,0,180,0,416.4468207,,416.3555345,5,416.4468207,416.4468207,0.0580229,418.6512267,[-0.395],[0.39625],[1],[0],[0],[2.238269599620253],['target'],425233,1,2024-10-10_18h57.00.230,untitled,2024.1.5,None,2024-10-10 18h57.06.835661 +0530
181,0,181,0,418.7293988,,418.6706555,5,418.7293988,418.7293988,0.0371027,420.7142345,[0.48875],[0.3375],[1],[0],[0],[2.0076724998652935],['target'],425233,1,2024-10-10_18h57.00.230,untitled,2024.1.5,None,2024-10-10 18h57.06.835661 +0530
182,0,182,0,420.7785262,,420.7212388,5,420.7785262,420.7785262,0.031031,423.1826812,[-0.4425],[-0.25],[1],[0],[0],[2.4307939000427723],['target'],425233,1,2024-10-10_18h57.00.230,untitled,2024.1.5,None,2024-10-10 18h57.06.835661 +0530
183,0,183,0,423.2959436,,423.1987267,5,423.2959436,423.2959436,0.0665464,425.6639175,[-0.07],[-0.2675],[1],[0],[0],[2.402230500243604],['target'],425233,1,2024-10-10_18h57.00.230,untitled,2024.1.5,None,2024-10-10 18h57.06.835661 +0530
184,0,184,0,425.7280136,,425.6738808,5,425.7280136,425.7280136,0.0328458,427.2969785,[-0.27125],[0.25125],[1],[0],[0],[1.5913968002423644],['target'],425233,1,2024-10-10_18h57.00.230,untitled,2024.1.5,None,2024-10-10 18h57.06.835661 +0530
185,0,185,0,427.426753,,427.3111581,10,427.426753,427.426753,0.0863204,429.4975573,[0.14625],[-0.37],[1],[0],[0],[2.103638300206512],['target'],425233,1,2024-10-10_18h57.00.230,untitled,2024.1.5,None,2024-10-10 18h57.06.835661 +0530
186,0,186,0,429.643149,,429.512764,10,429.643149,429.643149,0.0934552,433.3278751,[-0.43],[-0.0225],[1],[0],[0],[3.723953700158745],['target'],425233,1,2024-10-10_18h57.00.230,untitled,2024.1.5,None,2024-10-10 18h57.06.835661 +0530
187,0,187,0,433.3923038,,433.336139,5,433.3923038,433.3923038,0.0382242,435.1657277,[-0.47125],[0.145],[1],[0],[0],[1.7915114001370966],['target'],425233,1,2024-10-10_18h57.00.230,untitled,2024.1.5,None,2024-10-10 18h57.06.835661 +0530
188,0,188,0,435.291849,,435.1873167,5,435.291849,435.291849,0.0786011,437.0118053,[-0.12],[0.30875],[1],[0],[0],[1.749040599912405],['target'],425233,1,2024-10-10_18h57.00.230,untitled,2024.1.5,None,2024-10-10 18h57.06.835661 +0530
189,0,189,0,437.0913094,,437.0233402,5,437.0913094,437.0913094,0.0466798,438.6283895,[0.365],[-0.12875],[1],[0],[0],[1.5609003002755344],['target'],425233,1,2024-10-10_18h57.00.230,untitled,2024.1.5,None,2024-10-10 18h57.06.835661 +0530
190,0,190,0,438.7577472,,438.642445,10,438.7577472,438.7577472,0.0766848,441.1804797,[0.23375],[0.095],[1],[0],[0],[2.4641565000638366],['target'],425233,1,2024-10-10_18h57.00.230,untitled,2024.1.5,None,2024-10-10 18h57.06.835661 +0530
191,0,191,0,441.2904036,,441.2004241,5,441.2904036,441.2904036,0.0716509,443.0277936,[0.1825],[-0.0875],[1],[0],[0],[1.7590577998198569],['target'],425233,1,2024-10-10_18h57.00.230,untitled,2024.1.5,None,2024-10-10 18h57.06.835661 +0530
192,0,192,0,443.1745409,,443.040415,10,443.1745409,443.1745409,0.1093034,445.1650596,[-0.25625],[-0.14875],[1],[0],[0],[2.0179260997101665],['target'],425233,1,2024-10-10_18h57.00.230,untitled,2024.1.5,None,2024-10-10 18h57.06.835661 +0530
193,0,193,0,445.2565862,,445.1798334,5,445.2565862,445.2565862,0.0485513,446.9105589,[-0.01625],[-0.2275],[1],[0],[0],[1.6835345001891255],['target'],425233,1,2024-10-10_18h57.00.230,untitled,2024.1.5,None,2024-10-10 18h57.06.835661 +0530
194,0,194,0,447.0222827,,446.9249873,5,447.0222827,447.0222827,0.0670931,449.013403,[0.27875],[-0.34375],[1],[0],[0],[2.0224945000372827],['target'],425233,1,2024-10-10_18h57.00.230,untitled,2024.1.5,None,2024-10-10 18h57.06.835661 +0530
195,0,195,0,449.1717686,,449.0406765,10,449.1717686,449.1717686,0.0997298,451.1091844,[-0.35375],[0.2725],[1],[0],[0],[1.9743115999735892],['target'],425233,1,2024-10-10_18h57.00.230,untitled,2024.1.5,None,2024-10-10 18h57.06.835661 +0530
196,0,196,0,451.2381358,,451.1237923,10,451.2381358,451.2381358,0.0841986,452.856263,[-0.30875],[0.21625],[1],[0],[0],[1.6506225997582078],['target'],425233,1,2024-10-10_18h57.00.230,untitled,2024.1.5,None,2024-10-10 18h57.06.835661 +0530
197,0,197,0,452.9209824,,452.8611873,5,452.9209824,452.9209824,0.0324059,455.0724893,[0.23375],[-0.14],[1],[0],[0],[2.1794074000790715],['target'],425233,1,2024-10-10_18h57.00.230,untitled,2024.1.5,None,2024-10-10 18h57.06.835661 +0530
198,0,198,0,455.2034177,,455.0788221,10,455.2034177,455.2034177,0.0852197,456.6882007,[0.21375],[-0.0925],[1],[0],[0],[1.525048500392586],['target'],425233,1,2024-10-10_18h57.00.230,untitled,2024.1.5,None,2024-10-10 18h57.06.835661 +0530
199,0,199,0,456.8202482,,456.6960975,10,456.8202482,456.8202482,0.0840695,458.4883289,[0.09375],[0.14625],[1],[0],[0],[1.7093408000655472],['target'],425233,1,2024-10-10_18h57.00.230,untitled,2024.1.5,None,2024-10-10 18h57.06.835661 +0530
