pos,corr_resp,trials.thisRepN,trials.thisTrialN,trials.thisN,trials.thisIndex,trials_2.thisRepN,trials_2.thisTrialN,trials_2.thisN,trials_2.thisIndex,thisRow.t,notes,trial.started,fixation.started,line_1.started,line_2.started,line_3.started,line_4.started,fixation.stopped,probe.started,key_resp.started,trial.stopped,key_resp.keys,key_resp.corr,key_resp.rt,key_resp.duration,participant,session,date,expName,psychopyVersion,frameRate,expStart,
-50,x,0,0,0,0,,,,,0.03920320002362132,,0.02286719996482134,0.03920320002362132,1.015923900064081,1.015923900064081,1.015923900064081,1.015923900064081,1.0675359996967018,1.9995162999257445,1.9995162999257445,3.586112499702722,x,1,1.5427260003052652,None,507398,001,2024-10-16_15h03.31.052,motor sequence learning,2024.1.5,None,2024-10-16 15h03.42.046397 +0530,
150,v,0,1,1,1,,,,,3.6129755997098982,,3.594125499948859,3.6129755997098982,4.620146200060844,4.620146200060844,4.620146200060844,4.620146200060844,4.648870599921793,5.599810000043362,5.599810000043362,6.901215499732643,v,1,1.2989032003097236,None,507398,001,2024-10-16_15h03.31.052,motor sequence learning,2024.1.5,None,2024-10-16 15h03.42.046397 +0530,
50,c,0,2,2,2,,,,,6.92122619971633,,6.903720699716359,6.92122619971633,7.910516299773008,7.910516299773008,7.910516299773008,7.910516299773008,7.9264929997734725,8.909059599973261,8.909059599973261,10.177266099955887,c,1,1.2509010001085699,None,507398,001,2024-10-16_15h03.31.052,motor sequence learning,2024.1.5,None,2024-10-16 15h03.42.046397 +0530,
-150,z,0,3,3,3,,,,,10.19791719969362,,10.179548299871385,10.19791719969362,11.193188899662346,11.193188899662346,11.193188899662346,11.193188899662346,11.2078064000234,12.192585099954158,12.192585099954158,12.677846000064164,z,1,0.4787955000065267,None,507398,001,2024-10-16_15h03.31.052,motor sequence learning,2024.1.5,None,2024-10-16 15h03.42.046397 +0530,
-50,x,1,0,4,0,,,,,12.697808899916708,,12.680237900000066,12.697808899916708,13.69251099973917,13.69251099973917,13.69251099973917,13.69251099973917,13.708123999647796,14.690887599717826,14.690887599717826,15.09669280005619,x,1,0.3969044997356832,None,507398,001,2024-10-16_15h03.31.052,motor sequence learning,2024.1.5,None,2024-10-16 15h03.42.046397 +0530,
150,v,1,1,5,1,,,,,15.119559600017965,,15.100216699764132,15.119559600017965,16.11609150003642,16.11609150003642,16.11609150003642,16.11609150003642,16.139165499713272,17.11154819978401,17.11154819978401,17.495816699694842,v,1,0.3620662996545434,None,507398,001,2024-10-16_15h03.31.052,motor sequence learning,2024.1.5,None,2024-10-16 15h03.42.046397 +0530,
50,c,1,2,6,2,,,,,17.518282199744135,,17.499090699944645,17.518282199744135,18.51764849992469,18.51764849992469,18.51764849992469,18.51764849992469,18.538597600068897,19.5139501998201,19.5139501998201,19.860200599767268,c,1,0.33864099998027086,None,507398,001,2024-10-16_15h03.31.052,motor sequence learning,2024.1.5,None,2024-10-16 15h03.42.046397 +0530,
-150,z,1,3,7,3,,,,,19.88335229968652,,19.86373439989984,19.88335229968652,20.888082299847156,20.888082299847156,20.888082299847156,20.888082299847156,20.904724299907684,21.87805869989097,21.87805869989097,22.260593599639833,z,1,0.36255390010774136,None,507398,001,2024-10-16_15h03.31.052,motor sequence learning,2024.1.5,None,2024-10-16 15h03.42.046397 +0530,
-50,x,2,0,8,0,,,,,22.283283999655396,,22.26422349968925,22.283283999655396,23.28313730005175,23.28313730005175,23.28313730005175,23.28313730005175,23.304965700022876,24.27753479965031,24.27753479965031,25.81417869962752,x,1,1.5229933997616172,None,507398,001,2024-10-16_15h03.31.052,motor sequence learning,2024.1.5,None,2024-10-16 15h03.42.046397 +0530,
150,v,2,1,9,1,,,,,25.83403280004859,,25.817067000083625,25.83403280004859,26.82422489998862,26.82422489998862,26.82422489998862,26.82422489998862,26.839011899661273,27.83104689978063,27.83104689978063,28.98175839986652,v,1,1.128259800374508,None,507398,001,2024-10-16_15h03.31.052,motor sequence learning,2024.1.5,None,2024-10-16 15h03.42.046397 +0530,
50,c,2,2,10,2,,,,,29.003715499769896,,28.985435700044036,29.003715499769896,30.00406439974904,30.00406439974904,30.00406439974904,30.00406439974904,30.020697799976915,30.992586799897254,30.992586799897254,31.703255800064653,c,1,0.6954775000922382,None,507398,001,2024-10-16_15h03.31.052,motor sequence learning,2024.1.5,None,2024-10-16 15h03.42.046397 +0530,
-150,z,2,3,11,3,,,,,31.7271884996444,,31.709862099960446,31.7271884996444,32.71741219982505,32.71741219982505,32.71741219982505,32.71741219982505,32.734329300001264,33.72834530007094,33.72834530007094,34.055649099871516,z,1,0.3022660999558866,None,507398,001,2024-10-16_15h03.31.052,motor sequence learning,2024.1.5,None,2024-10-16 15h03.42.046397 +0530,
-50,x,3,0,12,0,,,,,34.07511089975014,,34.0589123996906,34.07511089975014,35.081162199843675,35.081162199843675,35.081162199843675,35.081162199843675,35.10468459967524,36.07828909996897,36.07828909996897,36.40926059987396,x,1,0.3198736999183893,None,507398,001,2024-10-16_15h03.31.052,motor sequence learning,2024.1.5,None,2024-10-16 15h03.42.046397 +0530,
150,v,3,1,13,1,,,,,36.42809569975361,,36.41104839975014,36.42809569975361,37.4328838000074,37.4328838000074,37.4328838000074,37.4328838000074,37.45147529989481,38.42507410002872,38.42507410002872,38.78691660007462,v,1,0.3584389998577535,None,507398,001,2024-10-16_15h03.31.052,motor sequence learning,2024.1.5,None,2024-10-16 15h03.42.046397 +0530,
50,c,3,2,14,2,,,,,38.807854999788105,,38.78973970003426,38.807854999788105,39.80160250002518,39.80160250002518,39.80160250002518,39.80160250002518,39.82358229998499,40.796045099850744,40.796045099850744,41.1444190996699,c,1,0.3358836001716554,None,507398,001,2024-10-16_15h03.31.052,motor sequence learning,2024.1.5,None,2024-10-16 15h03.42.046397 +0530,
-150,z,3,3,15,3,,,,,41.164492999669164,,41.14713739976287,41.164492999669164,42.152312899939716,42.152312899939716,42.152312899939716,42.152312899939716,42.16661849990487,43.16909009963274,43.16909009963274,43.5582019998692,z,1,0.3737723003141582,None,507398,001,2024-10-16_15h03.31.052,motor sequence learning,2024.1.5,None,2024-10-16 15h03.42.046397 +0530,
-50,x,4,0,16,0,,,,,43.58011809969321,,43.56202229997143,43.58011809969321,44.58021189970896,44.58021189970896,44.58021189970896,44.58021189970896,44.598002899903804,45.579668699763715,45.579668699763715,45.93848089966923,x,1,0.35408010007813573,None,507398,001,2024-10-16_15h03.31.052,motor sequence learning,2024.1.5,None,2024-10-16 15h03.42.046397 +0530,
150,v,4,1,17,1,,,,,45.9565341998823,,45.9403011999093,45.9565341998823,46.95867019984871,46.95867019984871,46.95867019984871,46.95867019984871,46.97309680003673,47.95321119995788,47.95321119995788,48.35178169980645,v,1,0.37842889968305826,None,507398,001,2024-10-16_15h03.31.052,motor sequence learning,2024.1.5,None,2024-10-16 15h03.42.046397 +0530,
50,c,4,2,18,2,,,,,48.37045449996367,,48.354795599821955,48.37045449996367,49.35801439965144,49.35801439965144,49.35801439965144,49.35801439965144,49.37272879993543,50.37876159977168,50.37876159977168,50.68880959972739,c,1,0.30750419991090894,None,507398,001,2024-10-16_15h03.31.052,motor sequence learning,2024.1.5,None,2024-10-16 15h03.42.046397 +0530,
-150,z,4,3,19,3,,,,,50.71079879999161,,50.69201749982312,50.71079879999161,51.715657299850136,51.715657299850136,51.715657299850136,51.715657299850136,51.73374120006338,52.708745799958706,52.708745799958706,53.038429599720985,z,1,0.30494770035147667,None,507398,001,2024-10-16_15h03.31.052,motor sequence learning,2024.1.5,None,2024-10-16 15h03.42.046397 +0530,
-50,x,5,0,20,0,,,,,53.060120599810034,,53.041701700072736,53.060120599810034,54.05912629980594,54.05912629980594,54.05912629980594,54.05912629980594,54.074366400018334,55.05670649977401,55.05670649977401,56.16772169992328,x,1,1.1065744999796152,None,507398,001,2024-10-16_15h03.31.052,motor sequence learning,2024.1.5,None,2024-10-16 15h03.42.046397 +0530,
150,v,5,1,21,1,,,,,56.18994649965316,,56.17087739985436,56.18994649965316,57.17474739998579,57.17474739998579,57.17474739998579,57.17474739998579,57.18974949978292,58.18230709992349,58.18230709992349,58.68050369992852,v,1,0.48348949989303946,None,507398,001,2024-10-16_15h03.31.052,motor sequence learning,2024.1.5,None,2024-10-16 15h03.42.046397 +0530,
50,c,5,2,22,2,,,,,58.70294059999287,,58.685805100016296,58.70294059999287,59.69236489990726,59.69236489990726,59.69236489990726,59.69236489990726,59.71167019987479,60.7013640999794,60.7013640999794,61.227329900022596,c,1,0.504462500102818,None,507398,001,2024-10-16_15h03.31.052,motor sequence learning,2024.1.5,None,2024-10-16 15h03.42.046397 +0530,
-150,z,5,3,23,3,,,,,61.24682099977508,,61.23185219988227,61.24682099977508,62.241110399831086,62.241110399831086,62.241110399831086,62.241110399831086,62.260535900015384,63.25740920007229,63.25740920007229,63.61564529966563,z,1,0.3441817997954786,None,507398,001,2024-10-16_15h03.31.052,motor sequence learning,2024.1.5,None,2024-10-16 15h03.42.046397 +0530,
-50,x,6,0,24,0,,,,,63.63688769983128,,63.618509700056165,63.63688769983128,64.63828999968246,64.63828999968246,64.63828999968246,64.63828999968246,64.6575119998306,65.63948029978201,65.63948029978201,66.17217299994081,x,1,0.5297715002670884,None,507398,001,2024-10-16_15h03.31.052,motor sequence learning,2024.1.5,None,2024-10-16 15h03.42.046397 +0530,
150,v,6,1,25,1,,,,,66.19300989992917,,66.17503389995545,66.19300989992917,67.18742999993265,67.18742999993265,67.18742999993265,67.18742999993265,67.2022568997927,68.19195789983496,68.19195789983496,68.4971195999533,v,1,0.2939567998982966,None,507398,001,2024-10-16_15h03.31.052,motor sequence learning,2024.1.5,None,2024-10-16 15h03.42.046397 +0530,
50,c,6,2,26,2,,,,,68.51648900005966,,68.50029130000621,68.51648900005966,69.53676739986986,69.53676739986986,69.53676739986986,69.53676739986986,69.53676739986986,70.52681829966605,70.52681829966605,70.89153339993209,c,1,0.3533450998365879,None,507398,001,2024-10-16_15h03.31.052,motor sequence learning,2024.1.5,None,2024-10-16 15h03.42.046397 +0530,
-150,z,6,3,27,3,,,,,70.91420089965686,,70.89535279991105,70.91420089965686,71.90710619976744,71.90710619976744,71.90710619976744,71.90710619976744,71.92407609988004,72.91929939994588,72.91929939994588,73.33246700000018,z,1,0.4047157997265458,None,507398,001,2024-10-16_15h03.31.052,motor sequence learning,2024.1.5,None,2024-10-16 15h03.42.046397 +0530,
-50,x,7,0,28,0,,,,,73.3557011000812,,73.336922199931,73.3557011000812,74.3528927997686,74.3528927997686,74.3528927997686,74.3528927997686,74.36727540008724,75.34133839979768,75.34133839979768,75.80847249971703,x,1,0.45175290014594793,None,507398,001,2024-10-16_15h03.31.052,motor sequence learning,2024.1.5,None,2024-10-16 15h03.42.046397 +0530,
150,v,7,1,29,1,,,,,75.83255509985611,,75.81434719962999,75.83255509985611,76.82808189978823,76.82808189978823,76.82808189978823,76.82808189978823,76.84161080000922,77.81512570008636,77.81512570008636,78.1617610999383,v,1,0.3283001999370754,None,507398,001,2024-10-16_15h03.31.052,motor sequence learning,2024.1.5,None,2024-10-16 15h03.42.046397 +0530,
50,c,7,2,30,2,,,,,78.17993729980662,,78.16461589979008,78.17993729980662,79.17668979987502,79.17668979987502,79.17668979987502,79.17668979987502,79.18920509982854,80.16410079970956,80.16410079970956,80.57802530005574,c,1,0.38881730008870363,None,507398,001,2024-10-16_15h03.31.052,motor sequence learning,2024.1.5,None,2024-10-16 15h03.42.046397 +0530,
-150,z,7,3,31,3,,,,,80.59937289962545,,80.58170729968697,80.59937289962545,81.5942238997668,81.5942238997668,81.5942238997668,81.5942238997668,81.61479179980233,82.58352739969268,82.58352739969268,83.03199639962986,z,1,0.44410109985619783,None,507398,001,2024-10-16_15h03.31.052,motor sequence learning,2024.1.5,None,2024-10-16 15h03.42.046397 +0530,
-50,x,8,0,32,0,,,,,83.05139319971204,,83.03466370003298,83.05139319971204,84.04998030001298,84.04998030001298,84.04998030001298,84.04998030001298,84.064553800039,85.03990860003978,85.03990860003978,85.50669700000435,x,1,0.45458379993215203,None,507398,001,2024-10-16_15h03.31.052,motor sequence learning,2024.1.5,None,2024-10-16 15h03.42.046397 +0530,
150,v,8,1,33,1,,,,,85.52678739978,,85.51125249965116,85.52678739978,86.52938509965315,86.52938509965315,86.52938509965315,86.52938509965315,86.54972929973155,87.53562359977514,87.53562359977514,88.01124999998137,v,1,0.458256000187248,None,507398,001,2024-10-16_15h03.31.052,motor sequence learning,2024.1.5,None,2024-10-16 15h03.42.046397 +0530,
50,c,8,2,34,2,,,,,88.03421099996194,,88.01539909979329,88.03421099996194,89.03102630004287,89.03102630004287,89.03102630004287,89.03102630004287,89.05142269982025,90.0225931997411,90.0225931997411,90.36905819969252,c,1,0.32119480008259416,None,507398,001,2024-10-16_15h03.31.052,motor sequence learning,2024.1.5,None,2024-10-16 15h03.42.046397 +0530,
-150,z,8,3,35,3,,,,,90.38905730005354,,90.3722752998583,90.38905730005354,91.38394529977813,91.38394529977813,91.38394529977813,91.38394529977813,91.40067399991676,92.3795503997244,92.3795503997244,92.51305359974504,z,1,0.12860820023342967,None,507398,001,2024-10-16_15h03.31.052,motor sequence learning,2024.1.5,None,2024-10-16 15h03.42.046397 +0530,
-50,x,9,0,36,0,,,,,92.53230149997398,,92.51518799969926,92.53230149997398,93.52462580008432,93.52462580008432,93.52462580008432,93.52462580008432,93.53859349992126,94.5478419996798,94.5478419996798,95.22236099978909,x,1,0.6529637002386153,None,507398,001,2024-10-16_15h03.31.052,motor sequence learning,2024.1.5,None,2024-10-16 15h03.42.046397 +0530,
150,v,9,1,37,1,,,,,95.24205099977553,,95.22647209977731,95.24205099977553,96.24303389992565,96.24303389992565,96.24303389992565,96.24303389992565,96.26256389962509,97.25745130004361,97.25745130004361,97.70625119982287,v,1,0.43578820023685694,None,507398,001,2024-10-16_15h03.31.052,motor sequence learning,2024.1.5,None,2024-10-16 15h03.42.046397 +0530,
50,c,9,2,38,2,,,,,97.72456520004198,,97.70833220006898,97.72456520004198,98.72133199963719,98.72133199963719,98.72133199963719,98.72133199963719,98.73568530008197,99.73042419971898,99.73042419971898,100.21982719982043,c,1,0.4848140999674797,None,507398,001,2024-10-16_15h03.31.052,motor sequence learning,2024.1.5,None,2024-10-16 15h03.42.046397 +0530,
-150,z,9,3,39,3,,,,,100.24057490006089,,100.22445599967614,100.24057490006089,101.23514979984611,101.23514979984611,101.23514979984611,101.23514979984611,101.26047999970615,102.23673629993573,102.23673629993573,102.84973019966856,z,1,0.5990240001119673,None,507398,001,2024-10-16_15h03.31.052,motor sequence learning,2024.1.5,None,2024-10-16 15h03.42.046397 +0530,
-50,x,10,0,40,0,,,,,102.87071179971099,,102.85491689993069,102.87071179971099,103.87558660004288,103.87558660004288,103.87558660004288,103.87558660004288,103.89695159997791,104.86214899970219,104.86214899970219,105.27354859979823,x,1,0.406636799685657,None,507398,001,2024-10-16_15h03.31.052,motor sequence learning,2024.1.5,None,2024-10-16 15h03.42.046397 +0530,
150,v,10,1,41,1,,,,,105.2949479999952,,105.27627639984712,105.2949479999952,106.2784318998456,106.2784318998456,106.2784318998456,106.2784318998456,106.29256440000609,107.30011159973219,107.30011159973219,107.65071799978614,v,1,0.3466993998736143,None,507398,001,2024-10-16_15h03.31.052,motor sequence learning,2024.1.5,None,2024-10-16 15h03.42.046397 +0530,
50,c,10,2,42,2,,,,,107.66896969964728,,107.6545261000283,107.66896969964728,108.6835133000277,108.6835133000277,108.6835133000277,108.6835133000277,108.6835133000277,109.67681929981336,109.67681929981336,110.05101599963382,c,1,0.35732659976929426,None,507398,001,2024-10-16_15h03.31.052,motor sequence learning,2024.1.5,None,2024-10-16 15h03.42.046397 +0530,
-150,z,10,3,43,3,,,,,110.07362959999591,,110.0565299000591,110.07362959999591,111.07017419999465,111.07017419999465,111.07017419999465,111.07017419999465,111.08538419986144,112.06409809971228,112.06409809971228,112.34615029999986,z,1,0.26585490023717284,None,507398,001,2024-10-16_15h03.31.052,motor sequence learning,2024.1.5,None,2024-10-16 15h03.42.046397 +0530,
-50,x,11,0,44,0,,,,,112.36754449969158,,112.34984999988228,112.36754449969158,113.37629069993272,113.37629069993272,113.37629069993272,113.37629069993272,113.3980682999827,114.36546309990808,114.36546309990808,114.82595829991624,x,1,0.4442214001901448,None,507398,001,2024-10-16_15h03.31.052,motor sequence learning,2024.1.5,None,2024-10-16 15h03.42.046397 +0530,
150,v,11,1,45,1,,,,,114.84929060004652,,114.83046610001475,114.84929060004652,115.84022409981117,115.84022409981117,115.84022409981117,115.84022409981117,115.86282669985667,116.84322390006855,116.84322390006855,117.1783507000655,v,1,0.3220943999476731,None,507398,001,2024-10-16_15h03.31.052,motor sequence learning,2024.1.5,None,2024-10-16 15h03.42.046397 +0530,
50,c,11,2,46,2,,,,,117.20314850006253,,117.18056309968233,117.20314850006253,118.19691929966211,118.19691929966211,118.19691929966211,118.19691929966211,118.21311319991946,119.19179279962555,119.19179279962555,119.61460769968107,c,1,0.3967972001992166,None,507398,001,2024-10-16_15h03.31.052,motor sequence learning,2024.1.5,None,2024-10-16 15h03.42.046397 +0530,
-150,z,11,3,47,3,,,,,119.63656049966812,,119.62002749973908,119.63656049966812,120.63490090006962,120.63490090006962,120.63490090006962,120.63490090006962,120.6576179000549,121.6455896999687,121.6455896999687,122.09846689971164,z,1,0.4333193995989859,None,507398,001,2024-10-16_15h03.31.052,motor sequence learning,2024.1.5,None,2024-10-16 15h03.42.046397 +0530,
-50,x,12,0,48,0,,,,,122.1202903999947,,122.10373639967293,122.1202903999947,123.10750239994377,123.10750239994377,123.10750239994377,123.10750239994377,123.12231120001525,124.12370450003073,124.12370450003073,124.50205940008163,x,1,0.3670834000222385,None,507398,001,2024-10-16_15h03.31.052,motor sequence learning,2024.1.5,None,2024-10-16 15h03.42.046397 +0530,
150,v,12,1,49,1,,,,,124.52627029968426,,124.50714410003275,124.52627029968426,125.52553839981556,125.52553839981556,125.52553839981556,125.52553839981556,125.5542708998546,126.53103749966249,126.53103749966249,126.91121789999306,v,1,0.3651545001193881,None,507398,001,2024-10-16_15h03.31.052,motor sequence learning,2024.1.5,None,2024-10-16 15h03.42.046397 +0530,
50,c,12,2,50,2,,,,,126.93121019983664,,126.91580000007525,126.93121019983664,127.92534200008959,127.92534200008959,127.92534200008959,127.92534200008959,127.94107659999281,128.9352499996312,128.9352499996312,129.22464110003784,c,1,0.28053529979661107,None,507398,001,2024-10-16_15h03.31.052,motor sequence learning,2024.1.5,None,2024-10-16 15h03.42.046397 +0530,
-150,z,12,3,51,3,,,,,129.24590600002557,,129.22746019996703,129.24590600002557,130.26444169972092,130.26444169972092,130.26444169972092,130.26444169972092,130.26444169972092,131.23665379965678,131.23665379965678,131.57072379998863,z,1,0.3289981996640563,None,507398,001,2024-10-16_15h03.31.052,motor sequence learning,2024.1.5,None,2024-10-16 15h03.42.046397 +0530,
-50,x,13,0,52,0,,,,,131.59017959982157,,131.5726341996342,131.59017959982157,132.59102310007438,132.59102310007438,132.59102310007438,132.59102310007438,132.60838689981028,133.62224370008335,133.62224370008335,134.00169189972803,x,1,0.36013519996777177,None,507398,001,2024-10-16_15h03.31.052,motor sequence learning,2024.1.5,None,2024-10-16 15h03.42.046397 +0530,
150,v,13,1,53,1,,,,,134.0252911997959,,134.00583259994164,134.0252911997959,135.01852689962834,135.01852689962834,135.01852689962834,135.01852689962834,135.03863079985604,136.02524770004675,136.02524770004675,136.3810530998744,v,1,0.33285440038889647,None,507398,001,2024-10-16_15h03.31.052,motor sequence learning,2024.1.5,None,2024-10-16 15h03.42.046397 +0530,
50,c,13,2,54,2,,,,,136.40200140001252,,136.38395859999582,136.40200140001252,137.4075336996466,137.4075336996466,137.4075336996466,137.4075336996466,137.4258652999997,138.40320219984278,138.40320219984278,138.80052289972082,c,1,0.38828109996393323,None,507398,001,2024-10-16_15h03.31.052,motor sequence learning,2024.1.5,None,2024-10-16 15h03.42.046397 +0530,
-150,z,13,3,55,3,,,,,138.82381419977173,,138.80442399997264,138.82381419977173,139.81960389995947,139.81960389995947,139.81960389995947,139.81960389995947,139.84431819990277,140.83422819990665,140.83422819990665,141.15183879993856,z,1,0.28222510032355785,None,507398,001,2024-10-16_15h03.31.052,motor sequence learning,2024.1.5,None,2024-10-16 15h03.42.046397 +0530,
-50,x,14,0,56,0,,,,,141.17929050000384,,141.15736839966848,141.17929050000384,142.1851592999883,142.1851592999883,142.1851592999883,142.1851592999883,142.2183948000893,143.17041529994458,143.17041529994458,143.61341529991478,x,1,0.43960459996014833,None,507398,001,2024-10-16_15h03.31.052,motor sequence learning,2024.1.5,None,2024-10-16 15h03.42.046397 +0530,
150,v,14,1,57,1,,,,,143.63644169969484,,143.61696089990437,143.63644169969484,144.64413170004264,144.64413170004264,144.64413170004264,144.64413170004264,144.66626219963655,145.6291379998438,145.6291379998438,146.1037067999132,v,1,0.4652455002069473,None,507398,001,2024-10-16_15h03.31.052,motor sequence learning,2024.1.5,None,2024-10-16 15h03.42.046397 +0530,
50,c,14,2,58,2,,,,,146.1262435996905,,146.10655809985474,146.1262435996905,147.12847399991006,147.12847399991006,147.12847399991006,147.12847399991006,147.14113610005006,148.11673109978437,148.11673109978437,148.58360779983923,c,1,0.462690900079906,None,507398,001,2024-10-16_15h03.31.052,motor sequence learning,2024.1.5,None,2024-10-16 15h03.42.046397 +0530,
-150,z,14,3,59,3,,,,,148.6057190997526,,148.58622939977795,148.6057190997526,149.60675229970366,149.60675229970366,149.60675229970366,149.60675229970366,149.6223502997309,150.60308149969205,150.60308149969205,150.98417200008407,z,1,0.36265139980241656,None,507398,001,2024-10-16_15h03.31.052,motor sequence learning,2024.1.5,None,2024-10-16 15h03.42.046397 +0530,
-50,x,15,0,60,0,,,,,151.00272109964862,,150.98679909994826,151.00272109964862,151.9999799998477,151.9999799998477,151.9999799998477,151.9999799998477,152.01467269985005,153.00034380005673,153.00034380005673,153.4724165997468,x,1,0.4489432000555098,None,507398,001,2024-10-16_15h03.31.052,motor sequence learning,2024.1.5,None,2024-10-16 15h03.42.046397 +0530,
150,v,15,1,61,1,,,,,153.4945008996874,,153.47822669986635,153.4945008996874,154.4867994999513,154.4867994999513,154.4867994999513,154.4867994999513,154.5021754000336,155.479262100067,155.479262100067,155.86395769985393,v,1,0.3666656003333628,None,507398,001,2024-10-16_15h03.31.052,motor sequence learning,2024.1.5,None,2024-10-16 15h03.42.046397 +0530,
50,c,15,2,62,2,,,,,155.88571349997073,,155.8677918999456,155.88571349997073,156.88363349996507,156.88363349996507,156.88363349996507,156.88363349996507,156.9032435999252,157.88188580004498,157.88188580004498,158.29995149979368,c,1,0.39554599998518825,None,507398,001,2024-10-16_15h03.31.052,motor sequence learning,2024.1.5,None,2024-10-16 15h03.42.046397 +0530,
-150,z,15,3,63,3,,,,,158.32105599995703,,158.30315619986504,158.32105599995703,159.31427849968895,159.31427849968895,159.31427849968895,159.31427849968895,159.33593200007454,160.32669689971954,160.32669689971954,160.72832919983193,z,1,0.37924399971961975,None,507398,001,2024-10-16_15h03.31.052,motor sequence learning,2024.1.5,None,2024-10-16 15h03.42.046397 +0530,
-50,x,16,0,64,0,,,,,160.74990929989144,,160.73152479995042,160.74990929989144,161.74932840000838,161.74932840000838,161.74932840000838,161.74932840000838,161.76504489965737,162.75260639982298,162.75260639982298,163.35364719992504,x,1,0.5876343003474176,None,507398,001,2024-10-16_15h03.31.052,motor sequence learning,2024.1.5,None,2024-10-16 15h03.42.046397 +0530,
150,v,16,1,65,1,,,,,163.3739636996761,,163.35869819996879,163.3739636996761,164.37743599992245,164.37743599992245,164.37743599992245,164.37743599992245,164.3972187996842,165.37109809974208,165.37109809974208,165.81194799998775,v,1,0.4289378998801112,None,507398,001,2024-10-16_15h03.31.052,motor sequence learning,2024.1.5,None,2024-10-16 15h03.42.046397 +0530,
50,c,16,2,66,2,,,,,165.83324839966372,,165.8148081996478,165.83324839966372,166.83586139976978,166.83586139976978,166.83586139976978,166.83586139976978,166.85428479965776,167.82049610000104,167.82049610000104,168.45304919965565,c,1,0.6144755999557674,None,507398,001,2024-10-16_15h03.31.052,motor sequence learning,2024.1.5,None,2024-10-16 15h03.42.046397 +0530,
-150,z,16,3,67,3,,,,,168.47266079997644,,168.45747409993783,168.47266079997644,169.47567019984126,169.47567019984126,169.47567019984126,169.47567019984126,169.49460410000756,170.47175049968064,170.47175049968064,170.8552971999161,z,1,0.3701682002283633,None,507398,001,2024-10-16_15h03.31.052,motor sequence learning,2024.1.5,None,2024-10-16 15h03.42.046397 +0530,
-50,x,17,0,68,0,,,,,170.8735906998627,,170.8581203999929,170.8735906998627,171.86487639974803,171.86487639974803,171.86487639974803,171.86487639974803,171.88393699983135,172.87463179975748,172.87463179975748,173.53732239967212,x,1,0.6532824002206326,None,507398,001,2024-10-16_15h03.31.052,motor sequence learning,2024.1.5,None,2024-10-16 15h03.42.046397 +0530,
150,v,17,1,69,1,,,,,173.55743299983442,,173.54117750003934,173.55743299983442,174.5525805996731,174.5525805996731,174.5525805996731,174.5525805996731,174.56979019986466,175.54595789965242,175.54595789965242,175.8568778000772,v,1,0.2917825998738408,None,507398,001,2024-10-16_15h03.31.052,motor sequence learning,2024.1.5,None,2024-10-16 15h03.42.046397 +0530,
50,c,17,2,70,2,,,,,175.87815249990672,,175.86025469982997,175.87815249990672,176.8789110998623,176.8789110998623,176.8789110998623,176.8789110998623,176.9054137999192,177.87383239995688,177.87383239995688,178.4082466000691,c,1,0.5184980002231896,None,507398,001,2024-10-16_15h03.31.052,motor sequence learning,2024.1.5,None,2024-10-16 15h03.42.046397 +0530,
-150,z,17,3,71,3,,,,,178.42977189971134,,178.4114259998314,178.42977189971134,179.42680179979652,179.42680179979652,179.42680179979652,179.42680179979652,179.44868109980598,180.43974029971287,180.43974029971287,180.88730919966474,z,1,0.4162420001812279,None,507398,001,2024-10-16_15h03.31.052,motor sequence learning,2024.1.5,None,2024-10-16 15h03.42.046397 +0530,
-50,x,18,0,72,0,,,,,180.90962189994752,,180.8917521997355,180.90962189994752,181.90607879962772,181.90607879962772,181.90607879962772,181.90607879962772,181.9289637999609,182.90271169971675,182.90271169971675,183.94095849990845,x,1,1.0289086000993848,None,507398,001,2024-10-16_15h03.31.052,motor sequence learning,2024.1.5,None,2024-10-16 15h03.42.046397 +0530,
150,v,18,1,73,1,,,,,183.95959529979154,,183.94288440002128,183.95959529979154,184.96083340002224,184.96083340002224,184.96083340002224,184.96083340002224,184.97606180002913,185.96226449962705,185.96226449962705,186.33656159974635,v,1,0.3601077999919653,None,507398,001,2024-10-16_15h03.31.052,motor sequence learning,2024.1.5,None,2024-10-16 15h03.42.046397 +0530,
50,c,18,2,74,2,,,,,186.35656249988824,,186.33910979982466,186.35656249988824,187.34658859996125,187.34658859996125,187.34658859996125,187.34658859996125,187.36524620000273,188.34395679971203,188.34395679971203,188.70381069974974,c,1,0.3502256004139781,None,507398,001,2024-10-16_15h03.31.052,motor sequence learning,2024.1.5,None,2024-10-16 15h03.42.046397 +0530,
-150,z,18,3,75,3,,,,,188.72525659995154,,188.70653249975294,188.72525659995154,189.7135993996635,189.7135993996635,189.7135993996635,189.7135993996635,189.73117149993777,190.74419949995354,190.74419949995354,191.20786249963567,z,1,0.4566902997903526,None,507398,001,2024-10-16_15h03.31.052,motor sequence learning,2024.1.5,None,2024-10-16 15h03.42.046397 +0530,
-50,x,19,0,76,0,,,,,191.2304209000431,,191.21139609999955,191.2304209000431,192.2265046997927,192.2265046997927,192.2265046997927,192.2265046997927,192.24241429986432,193.23561359988526,193.23561359988526,193.74234559992328,x,1,0.5040465001948178,None,507398,001,2024-10-16_15h03.31.052,motor sequence learning,2024.1.5,None,2024-10-16 15h03.42.046397 +0530,
150,v,19,1,77,1,,,,,193.76611900003627,,193.74564339965582,193.76611900003627,194.77283059991896,194.77283059991896,194.77283059991896,194.77283059991896,194.79098189994693,195.7620453997515,195.7620453997515,196.3072766000405,v,1,0.5270271999761462,None,507398,001,2024-10-16_15h03.31.052,motor sequence learning,2024.1.5,None,2024-10-16 15h03.42.046397 +0530,
50,c,19,2,78,2,,,,,196.33419020008296,,196.3096603997983,196.33419020008296,197.32748649967834,197.32748649967834,197.32748649967834,197.32748649967834,197.3452375996858,198.31234299996868,198.31234299996868,198.86659089988098,c,1,0.5351359001360834,None,507398,001,2024-10-16_15h03.31.052,motor sequence learning,2024.1.5,None,2024-10-16 15h03.42.046397 +0530,
-150,z,19,3,79,3,,,,,198.886268499773,,198.8689565998502,198.886268499773,199.87198799988255,199.87198799988255,199.87198799988255,199.87198799988255,199.88658829964697,200.89105689991266,200.89105689991266,201.22789849992841,z,1,0.32505329977720976,None,507398,001,2024-10-16_15h03.31.052,motor sequence learning,2024.1.5,None,2024-10-16 15h03.42.046397 +0530,
-50,x,20,0,80,0,,,,,201.24822269985452,,201.23278599977493,201.24822269985452,202.2395392996259,202.2395392996259,202.2395392996259,202.2395392996259,202.26595389982685,203.24623609986156,203.24623609986156,203.9581830999814,x,1,0.6982434997335076,None,507398,001,2024-10-16_15h03.31.052,motor sequence learning,2024.1.5,None,2024-10-16 15h03.42.046397 +0530,
150,v,20,1,81,1,,,,,203.98217189963907,,203.96079709986225,203.98217189963907,204.982315399684,204.982315399684,204.982315399684,204.982315399684,205.00309009989724,205.96820960007608,205.96820960007608,206.37815469969064,v,1,0.4066488998942077,None,507398,001,2024-10-16_15h03.31.052,motor sequence learning,2024.1.5,None,2024-10-16 15h03.42.046397 +0530,
50,c,20,2,82,2,,,,,206.4002008996904,,206.38344619981945,206.4002008996904,207.38994230004027,207.38994230004027,207.38994230004027,207.38994230004027,207.4100782996975,208.40028549963608,208.40028549963608,208.82898949971423,c,1,0.4151383996941149,None,507398,001,2024-10-16_15h03.31.052,motor sequence learning,2024.1.5,None,2024-10-16 15h03.42.046397 +0530,
-150,z,20,3,83,3,,,,,208.84978409996256,,208.830478399992,208.84978409996256,209.84451279975474,209.84451279975474,209.84451279975474,209.84451279975474,209.86172960000113,210.84949880000204,210.84949880000204,211.200877700001,z,1,0.3325765999034047,None,507398,001,2024-10-16_15h03.31.052,motor sequence learning,2024.1.5,None,2024-10-16 15h03.42.046397 +0530,
-50,x,21,0,84,0,,,,,211.21917179971933,,211.20271239988506,211.21917179971933,212.20925709977746,212.20925709977746,212.20925709977746,212.20925709977746,212.2232379000634,213.2291330997832,213.2291330997832,213.62067779991776,x,1,0.38709230022504926,None,507398,001,2024-10-16_15h03.31.052,motor sequence learning,2024.1.5,None,2024-10-16 15h03.42.046397 +0530,
150,v,21,1,85,1,,,,,213.64305269997567,,213.62426789989695,213.64305269997567,214.64612609986216,214.64612609986216,214.64612609986216,214.64612609986216,214.66126209963113,215.62714649969712,215.62714649969712,216.04138679988682,v,1,0.39404179994016886,None,507398,001,2024-10-16_15h03.31.052,motor sequence learning,2024.1.5,None,2024-10-16 15h03.42.046397 +0530,
50,c,21,2,86,2,,,,,216.0639169998467,,216.04702130006626,216.0639169998467,217.05481630004942,217.05481630004942,217.05481630004942,217.05481630004942,217.07270039990544,218.05582419969141,218.05582419969141,218.60160150006413,c,1,0.5430569001473486,None,507398,001,2024-10-16_15h03.31.052,motor sequence learning,2024.1.5,None,2024-10-16 15h03.42.046397 +0530,
-150,z,21,3,87,3,,,,,218.61898220004514,,218.60305799962953,218.61898220004514,219.61593770002946,219.61593770002946,219.61593770002946,219.61593770002946,219.63590719969943,220.61861519981176,220.61861519981176,220.9376892996952,z,1,0.31196790002286434,None,507398,001,2024-10-16_15h03.31.052,motor sequence learning,2024.1.5,None,2024-10-16 15h03.42.046397 +0530,
-50,x,22,0,88,0,,,,,220.9614364998415,,220.94001109991223,220.9614364998415,221.95286809979007,221.95286809979007,221.95286809979007,221.95286809979007,221.96849599992856,222.95911039970815,222.95911039970815,223.56374579994008,x,1,0.5888543003238738,None,507398,001,2024-10-16_15h03.31.052,motor sequence learning,2024.1.5,None,2024-10-16 15h03.42.046397 +0530,
150,v,22,1,89,1,,,,,223.5881197997369,,223.5681483997032,223.5881197997369,224.59249629965052,224.59249629965052,224.59249629965052,224.59249629965052,224.61856119986624,225.58582979999483,225.58582979999483,225.9482962996699,v,1,0.3579978998750448,None,507398,001,2024-10-16_15h03.31.052,motor sequence learning,2024.1.5,None,2024-10-16 15h03.42.046397 +0530,
50,c,22,2,90,2,,,,,225.9683015998453,,225.95109849981964,225.9683015998453,226.96946239983663,226.96946239983663,226.96946239983663,226.96946239983663,226.99155559996143,227.97796309972182,227.97796309972182,228.37827109964564,c,1,0.395639699883759,None,507398,001,2024-10-16_15h03.31.052,motor sequence learning,2024.1.5,None,2024-10-16 15h03.42.046397 +0530,
-150,z,22,3,91,3,,,,,228.40198809979483,,228.382303299848,228.40198809979483,229.40920870006084,229.40920870006084,229.40920870006084,229.40920870006084,229.43231019983068,230.41486359992996,230.41486359992996,230.78902969975024,z,1,0.36495810002088547,None,507398,001,2024-10-16_15h03.31.052,motor sequence learning,2024.1.5,None,2024-10-16 15h03.42.046397 +0530,
-50,x,23,0,92,0,,,,,230.8079618997872,,230.79255159990862,230.8079618997872,231.8071780996397,231.8071780996397,231.8071780996397,231.8071780996397,231.82309769978747,232.80243379995227,232.80243379995227,233.20748939970508,x,1,0.3936126003973186,None,507398,001,2024-10-16_15h03.31.052,motor sequence learning,2024.1.5,None,2024-10-16 15h03.42.046397 +0530,
150,v,23,1,93,1,,,,,233.22829909995198,,233.21047809999436,233.22829909995198,234.21469039982185,234.21469039982185,234.21469039982185,234.21469039982185,234.24154529999942,235.23190969973803,235.23190969973803,235.53557569999248,v,1,0.2917432999238372,None,507398,001,2024-10-16_15h03.31.052,motor sequence learning,2024.1.5,None,2024-10-16 15h03.42.046397 +0530,
50,c,23,2,94,2,,,,,235.5579594997689,,235.5399368996732,235.5579594997689,236.554595799651,236.554595799651,236.554595799651,236.554595799651,236.56890299962834,237.56300679966807,237.56300679966807,237.92749270005152,c,1,0.36192529974505305,None,507398,001,2024-10-16_15h03.31.052,motor sequence learning,2024.1.5,None,2024-10-16 15h03.42.046397 +0530,
-150,z,23,3,95,3,,,,,237.94494289997965,,237.92891749972478,237.94494289997965,238.94552369974554,238.94552369974554,238.94552369974554,238.94552369974554,238.96006739977747,239.94953699968755,239.94953699968755,240.31653819978237,z,1,0.351674800273031,None,507398,001,2024-10-16_15h03.31.052,motor sequence learning,2024.1.5,None,2024-10-16 15h03.42.046397 +0530,
-50,x,24,0,96,0,,,,,240.34104939969257,,240.32360420003533,240.34104939969257,241.3398412996903,241.3398412996903,241.3398412996903,241.3398412996903,241.36257479991764,242.34601539978758,242.34601539978758,242.74722469970584,x,1,0.38158859964460135,None,507398,001,2024-10-16_15h03.31.052,motor sequence learning,2024.1.5,None,2024-10-16 15h03.42.046397 +0530,
150,v,24,1,97,1,,,,,242.77297979965806,,242.74959409981966,242.77297979965806,243.77336979983374,243.77336979983374,243.77336979983374,243.77336979983374,243.7963944999501,244.77366920001805,244.77366920001805,245.14087609993294,v,1,0.35262339981272817,None,507398,001,2024-10-16_15h03.31.052,motor sequence learning,2024.1.5,None,2024-10-16 15h03.42.046397 +0530,
50,c,24,2,98,2,,,,,245.16474069980904,,245.14494739985093,245.16474069980904,246.1536928997375,246.1536928997375,246.1536928997375,246.1536928997375,246.1687566000037,247.16344329994172,247.16344329994172,247.71168479975313,c,1,0.5403229002840817,None,507398,001,2024-10-16_15h03.31.052,motor sequence learning,2024.1.5,None,2024-10-16 15h03.42.046397 +0530,
-150,z,24,3,99,3,,,,,247.72939789993688,,247.71357009978965,247.72939789993688,248.71820329967886,248.71820329967886,248.71820329967886,248.71820329967886,248.73501889966428,249.71912889974192,249.71912889974192,250.09452969999984,z,1,0.3572207000106573,None,507398,001,2024-10-16_15h03.31.052,motor sequence learning,2024.1.5,None,2024-10-16 15h03.42.046397 +0530,
-50,x,25,0,100,0,,,,,250.11566139990464,,250.09785379981622,250.11566139990464,251.12052009999752,251.12052009999752,251.12052009999752,251.12052009999752,251.13967349985614,252.10956669971347,252.10956669971347,252.5934208999388,x,1,0.4667298998683691,None,507398,001,2024-10-16_15h03.31.052,motor sequence learning,2024.1.5,None,2024-10-16 15h03.42.046397 +0530,
150,v,25,1,101,1,,,,,252.61383270006627,,252.5967195997946,252.61383270006627,253.67908879974857,253.67908879974857,253.67908879974857,253.67908879974857,253.67908879974857,254.62704089982435,254.62704089982435,255.08731599990278,v,1,0.45755149982869625,None,507398,001,2024-10-16_15h03.31.052,motor sequence learning,2024.1.5,None,2024-10-16 15h03.42.046397 +0530,
50,c,25,2,102,2,,,,,255.11108249984682,,255.09085069969296,255.11108249984682,256.10319779999554,256.10319779999554,256.10319779999554,256.10319779999554,256.1266127000563,257.1078061000444,257.1078061000444,257.43716820003465,c,1,0.32330780010670424,None,507398,001,2024-10-16_15h03.31.052,motor sequence learning,2024.1.5,None,2024-10-16 15h03.42.046397 +0530,
-150,z,25,3,103,3,,,,,257.4606356997974,,257.4406955996528,257.4606356997974,258.45790540007874,258.45790540007874,258.45790540007874,258.45790540007874,258.4724625996314,259.45052669988945,259.45052669988945,259.8533907998353,z,1,0.375791700091213,None,507398,001,2024-10-16_15h03.31.052,motor sequence learning,2024.1.5,None,2024-10-16 15h03.42.046397 +0530,
-50,x,26,0,104,0,,,,,259.87731829984114,,259.85731069976464,259.87731829984114,260.86652889987454,260.86652889987454,260.86652889987454,260.86652889987454,260.8817598000169,261.8718999000266,261.8718999000266,262.7504568998702,x,1,0.8570218998938799,None,507398,001,2024-10-16_15h03.31.052,motor sequence learning,2024.1.5,None,2024-10-16 15h03.42.046397 +0530,
150,v,26,1,105,1,,,,,262.77160969981924,,262.7535765999928,262.77160969981924,263.7710521998815,263.7710521998815,263.7710521998815,263.7710521998815,263.7923790998757,264.7587732998654,264.7587732998654,265.1776506998576,v,1,0.40768690034747124,None,507398,001,2024-10-16_15h03.31.052,motor sequence learning,2024.1.5,None,2024-10-16 15h03.42.046397 +0530,
50,c,26,2,106,2,,,,,265.19899499975145,,265.18334309989586,265.19899499975145,266.193682000041,266.193682000041,266.193682000041,266.193682000041,266.20917249983177,267.18718619970605,267.18718619970605,267.6071804999374,c,1,0.40275330003350973,None,507398,001,2024-10-16_15h03.31.052,motor sequence learning,2024.1.5,None,2024-10-16 15h03.42.046397 +0530,
-150,z,26,3,107,3,,,,,267.62745440006256,,267.6091094999574,267.62745440006256,268.6153762000613,268.6153762000613,268.6153762000613,268.6153762000613,268.6287185996771,269.627007199917,269.627007199917,269.99896539980546,z,1,0.36359950015321374,None,507398,001,2024-10-16_15h03.31.052,motor sequence learning,2024.1.5,None,2024-10-16 15h03.42.046397 +0530,
-50,x,27,0,108,0,,,,,270.0205727997236,,270.00164490006864,270.0205727997236,271.01862169988453,271.01862169988453,271.01862169988453,271.01862169988453,271.03744739992544,272.0143512999639,272.0143512999639,272.45312529988587,x,1,0.4351888997480273,None,507398,001,2024-10-16_15h03.31.052,motor sequence learning,2024.1.5,None,2024-10-16 15h03.42.046397 +0530,
150,v,27,1,109,1,,,,,272.4720939998515,,272.4551291996613,272.4720939998515,273.47248069988564,273.47248069988564,273.47248069988564,273.47248069988564,273.4992689997889,274.4728198996745,274.4728198996745,274.90884329983965,v,1,0.4335478995926678,None,507398,001,2024-10-16_15h03.31.052,motor sequence learning,2024.1.5,None,2024-10-16 15h03.42.046397 +0530,
50,c,27,2,110,2,,,,,274.93146599968895,,274.91512699984014,274.93146599968895,275.9405827000737,275.9405827000737,275.9405827000737,275.9405827000737,275.9405827000737,276.96119969990104,276.96119969990104,277.2656330000609,c,1,0.28819300001487136,None,507398,001,2024-10-16_15h03.31.052,motor sequence learning,2024.1.5,None,2024-10-16 15h03.42.046397 +0530,
-150,z,27,3,111,3,,,,,277.2865706998855,,277.26885679969564,277.2865706998855,278.28638939978555,278.28638939978555,278.28638939978555,278.28638939978555,278.3012338997796,279.29670489998534,279.29670489998534,279.6492925998755,z,1,0.34731819992884994,None,507398,001,2024-10-16_15h03.31.052,motor sequence learning,2024.1.5,None,2024-10-16 15h03.42.046397 +0530,
-50,x,28,0,112,0,,,,,279.6703180996701,,279.65182119980454,279.6703180996701,280.6727159000002,280.6727159000002,280.6727159000002,280.6727159000002,280.6901173996739,281.6570974998176,281.6570974998176,282.34295499976724,x,1,0.6500265002250671,None,507398,001,2024-10-16_15h03.31.052,motor sequence learning,2024.1.5,None,2024-10-16 15h03.42.046397 +0530,
150,v,28,1,113,1,,,,,282.367437500041,,282.3493566997349,282.367437500041,283.3686820999719,283.3686820999719,283.3686820999719,283.3686820999719,283.38810830004513,284.36939319968224,284.36939319968224,284.7229772997089,v,1,0.3376834001392126,None,507398,001,2024-10-16_15h03.31.052,motor sequence learning,2024.1.5,None,2024-10-16 15h03.42.046397 +0530,
50,c,28,2,114,2,,,,,284.7434865999967,,284.7275048000738,284.7434865999967,285.74318149965256,285.74318149965256,285.74318149965256,285.74318149965256,285.7644364996813,286.74893439980224,286.74893439980224,287.02346109971404,c,1,0.2501034000888467,None,507398,001,2024-10-16_15h03.31.052,motor sequence learning,2024.1.5,None,2024-10-16 15h03.42.046397 +0530,
-150,z,28,3,115,3,,,,,287.04400709969923,,287.02849130006507,287.04400709969923,288.03589729964733,288.03589729964733,288.03589729964733,288.03589729964733,288.0513149998151,289.05310199968517,289.05310199968517,289.2616384997964,z,1,0.20453620003536344,None,507398,001,2024-10-16_15h03.31.052,motor sequence learning,2024.1.5,None,2024-10-16 15h03.42.046397 +0530,
-50,x,29,0,116,0,,,,,289.2820747997612,,289.26423389976844,289.2820747997612,290.2955403998494,290.2955403998494,290.2955403998494,290.2955403998494,290.2955403998494,291.2666142997332,291.2666142997332,291.6289491998032,x,1,0.35198969999328256,None,507398,001,2024-10-16_15h03.31.052,motor sequence learning,2024.1.5,None,2024-10-16 15h03.42.046397 +0530,
150,v,29,1,117,1,,,,,291.6482669999823,,291.63118680007756,291.6482669999823,292.6473321998492,292.6473321998492,292.6473321998492,292.6473321998492,292.6676468998194,293.63532410003245,293.63532410003245,294.0352599998005,v,1,0.38345779990777373,None,507398,001,2024-10-16_15h03.31.052,motor sequence learning,2024.1.5,None,2024-10-16 15h03.42.046397 +0530,
50,c,29,2,118,2,,,,,294.0551173998974,,294.03815309982747,294.0551173998974,295.0652809999883,295.0652809999883,295.0652809999883,295.0652809999883,295.0652809999883,296.04770560003817,296.04770560003817,296.46366069978103,c,1,0.4037969997152686,None,507398,001,2024-10-16_15h03.31.052,motor sequence learning,2024.1.5,None,2024-10-16 15h03.42.046397 +0530,
-150,z,29,3,119,3,,,,,296.4816282996908,,296.4655569996685,296.4816282996908,297.47973119979724,297.47973119979724,297.47973119979724,297.47973119979724,297.49932250007987,298.4913719999604,298.4913719999604,298.9384800000116,z,1,0.4230340998619795,None,507398,001,2024-10-16_15h03.31.052,motor sequence learning,2024.1.5,None,2024-10-16 15h03.42.046397 +0530,
-50,x,30,0,120,0,,,,,298.9593540998176,,298.9433031999506,298.9593540998176,299.95068969996646,299.95068969996646,299.95068969996646,299.95068969996646,299.96651579998434,300.97028509993106,300.97028509993106,301.45198130002245,x,1,0.4575077001936734,None,507398,001,2024-10-16_15h03.31.052,motor sequence learning,2024.1.5,None,2024-10-16 15h03.42.046397 +0530,
150,v,30,1,121,1,,,,,301.47683280007914,,301.45868489984423,301.47683280007914,302.4755839998834,302.4755839998834,302.4755839998834,302.4755839998834,302.5032629999332,303.47777029965073,303.47777029965073,303.8326745000668,v,1,0.342005199752748,None,507398,001,2024-10-16_15h03.31.052,motor sequence learning,2024.1.5,None,2024-10-16 15h03.42.046397 +0530,
50,c,30,2,122,2,,,,,303.8528911997564,,303.8355556000024,303.8528911997564,304.85151159996167,304.85151159996167,304.85151159996167,304.85151159996167,304.8702978999354,305.8537639998831,305.8537639998831,306.7776474999264,c,1,0.9061042997054756,None,507398,001,2024-10-16_15h03.31.052,motor sequence learning,2024.1.5,None,2024-10-16 15h03.42.046397 +0530,
-150,z,30,3,123,3,,,,,306.79851539991796,,306.780585099943,306.79851539991796,307.7935799998231,307.7935799998231,307.7935799998231,307.7935799998231,307.81283719977364,308.79940539970994,308.79940539970994,309.1558816996403,z,1,0.33445850014686584,None,507398,001,2024-10-16_15h03.31.052,motor sequence learning,2024.1.5,None,2024-10-16 15h03.42.046397 +0530,
-50,x,31,0,124,0,,,,,309.17689209990203,,309.1587588000111,309.17689209990203,310.18323259986937,310.18323259986937,310.18323259986937,310.18323259986937,310.2019652999006,311.1802896000445,311.1802896000445,311.55873249983415,x,1,0.36600919999182224,None,507398,001,2024-10-16_15h03.31.052,motor sequence learning,2024.1.5,None,2024-10-16 15h03.42.046397 +0530,
150,v,31,1,125,1,,,,,311.5794204999693,,311.5615026000887,311.5794204999693,312.5760391000658,312.5760391000658,312.5760391000658,312.5760391000658,312.59864619979635,313.57054359978065,313.57054359978065,314.0624680998735,v,1,0.47389329969882965,None,507398,001,2024-10-16_15h03.31.052,motor sequence learning,2024.1.5,None,2024-10-16 15h03.42.046397 +0530,
50,c,31,2,126,2,,,,,314.08199199987575,,314.0653478996828,314.08199199987575,315.07282859971747,315.07282859971747,315.07282859971747,315.07282859971747,315.092973199673,316.0884523000568,316.0884523000568,316.5446329000406,c,1,0.433610400184989,None,507398,001,2024-10-16_15h03.31.052,motor sequence learning,2024.1.5,None,2024-10-16 15h03.42.046397 +0530,
-150,z,31,3,127,3,,,,,316.56403509993106,,316.5474376999773,316.56403509993106,317.5689290999435,317.5689290999435,317.5689290999435,317.5689290999435,317.58588369982317,318.57829510001466,318.57829510001466,318.9121117000468,z,1,0.32022150000557303,None,507398,001,2024-10-16_15h03.31.052,motor sequence learning,2024.1.5,None,2024-10-16 15h03.42.046397 +0530,
-50,x,32,0,128,0,,,,,318.93441189965233,,318.9156545996666,318.93441189965233,319.95385139994323,319.95385139994323,319.95385139994323,319.95385139994323,319.95385139994323,320.9292389997281,320.9292389997281,321.3067457000725,x,1,0.37397849978879094,None,507398,001,2024-10-16_15h03.31.052,motor sequence learning,2024.1.5,None,2024-10-16 15h03.42.046397 +0530,
150,v,32,1,129,1,,,,,321.3293008999899,,321.31038679974154,321.3293008999899,322.3358892998658,322.3358892998658,322.3358892998658,322.3358892998658,322.3571345000528,323.34021169971675,323.34021169971675,323.6034785998054,v,1,0.25086369970813394,None,507398,001,2024-10-16_15h03.31.052,motor sequence learning,2024.1.5,None,2024-10-16 15h03.42.046397 +0530,
50,c,32,2,130,2,,,,,323.6246388996951,,323.6074910997413,323.6246388996951,324.6275129998103,324.6275129998103,324.6275129998103,324.6275129998103,324.6454230998643,325.62145049963146,325.62145049963146,326.05280329985544,c,1,0.4112316998653114,None,507398,001,2024-10-16_15h03.31.052,motor sequence learning,2024.1.5,None,2024-10-16 15h03.42.046397 +0530,
-150,z,32,3,131,3,,,,,326.0741433999501,,326.0559131000191,326.0741433999501,327.0671236999333,327.0671236999333,327.0671236999333,327.0671236999333,327.08872799994424,328.06277639977634,328.06277639977634,328.43561419984326,z,1,0.350458599627018,None,507398,001,2024-10-16_15h03.31.052,motor sequence learning,2024.1.5,None,2024-10-16 15h03.42.046397 +0530,
-50,x,33,0,132,0,,,,,328.45705229975283,,328.43880590004846,328.45705229975283,329.4535070997663,329.4535070997663,329.4535070997663,329.4535070997663,329.473350699991,330.458708900027,330.458708900027,330.97061419999227,x,1,0.505065499804914,None,507398,001,2024-10-16_15h03.31.052,motor sequence learning,2024.1.5,None,2024-10-16 15h03.42.046397 +0530,
150,v,33,1,133,1,,,,,330.9959176997654,,330.97549889981747,330.9959176997654,331.9990592999384,331.9990592999384,331.9990592999384,331.9990592999384,332.0256673996337,332.985842499882,332.985842499882,333.3215306997299,v,1,0.33346759993582964,None,507398,001,2024-10-16_15h03.31.052,motor sequence learning,2024.1.5,None,2024-10-16 15h03.42.046397 +0530,
50,c,33,2,134,2,,,,,333.3428798997775,,333.32481569983065,333.3428798997775,334.3353756000288,334.3353756000288,334.3353756000288,334.3353756000288,334.3564390996471,335.34333839965984,335.34333839965984,335.7905389997177,c,1,0.4427159996703267,None,507398,001,2024-10-16_15h03.31.052,motor sequence learning,2024.1.5,None,2024-10-16 15h03.42.046397 +0530,
-150,z,33,3,135,3,,,,,335.8125533000566,,335.79368209978566,335.8125533000566,336.8010232998058,336.8010232998058,336.8010232998058,336.8010232998058,336.82087939977646,337.81625809986144,337.81625809986144,338.13884909963235,z,1,0.3029978000558913,None,507398,001,2024-10-16_15h03.31.052,motor sequence learning,2024.1.5,None,2024-10-16 15h03.42.046397 +0530,
-50,x,34,0,136,0,,,,,338.1591918999329,,338.1419513998553,338.1591918999329,339.1600311999209,339.1600311999209,339.1600311999209,339.1600311999209,339.1811747997999,340.16402899986133,340.16402899986133,340.58940869988874,x,1,0.4156997003592551,None,507398,001,2024-10-16_15h03.31.052,motor sequence learning,2024.1.5,None,2024-10-16 15h03.42.046397 +0530,
150,v,34,1,137,1,,,,,340.611418500077,,340.5925970999524,340.611418500077,341.612695899792,341.612695899792,341.612695899792,341.612695899792,341.6255406998098,342.6042804000899,342.6042804000899,342.93691259995103,v,1,0.33122400008141994,None,507398,001,2024-10-16_15h03.31.052,motor sequence learning,2024.1.5,None,2024-10-16 15h03.42.046397 +0530,
50,c,34,2,138,2,,,,,342.9555993997492,,342.938391499687,342.9555993997492,343.9582306998782,343.9582306998782,343.9582306998782,343.9582306998782,343.97375589981675,344.95044819964096,344.95044819964096,345.3271641996689,c,1,0.3517582998611033,None,507398,001,2024-10-16_15h03.31.052,motor sequence learning,2024.1.5,None,2024-10-16 15h03.42.046397 +0530,
-150,z,34,3,139,3,,,,,345.3473853999749,,345.3319382998161,345.3473853999749,346.3504268997349,346.3504268997349,346.3504268997349,346.3504268997349,346.36904749972746,347.33491259999573,347.33491259999573,347.7038189996965,z,1,0.35283789969980717,None,507398,001,2024-10-16_15h03.31.052,motor sequence learning,2024.1.5,None,2024-10-16 15h03.42.046397 +0530,
-50,x,35,0,140,0,,,,,347.7235332997516,,347.70658059976995,347.7235332997516,348.7106522000395,348.7106522000395,348.7106522000395,348.7106522000395,348.7324576000683,349.71827089972794,349.71827089972794,350.0783734996803,x,1,0.3413505000062287,None,507398,001,2024-10-16_15h03.31.052,motor sequence learning,2024.1.5,None,2024-10-16 15h03.42.046397 +0530,
150,v,35,1,141,1,,,,,350.09734049998224,,350.0806919997558,350.09734049998224,351.09575079986826,351.09575079986826,351.09575079986826,351.09575079986826,351.11081240000203,352.1006136997603,352.1006136997603,352.4560639997944,v,1,0.3278071996755898,None,507398,001,2024-10-16_15h03.31.052,motor sequence learning,2024.1.5,None,2024-10-16 15h03.42.046397 +0530,
50,c,35,2,142,2,,,,,352.4794748998247,,352.4618152999319,352.4794748998247,353.50542199984193,353.50542199984193,353.50542199984193,353.50542199984193,353.5391663997434,354.4772904999554,354.4772904999554,354.8131045997143,c,1,0.33339380007237196,None,507398,001,2024-10-16_15h03.31.052,motor sequence learning,2024.1.5,None,2024-10-16 15h03.42.046397 +0530,
-150,z,35,3,143,3,,,,,354.8353859996423,,354.81627020007,354.8353859996423,355.82519740005955,355.82519740005955,355.82519740005955,355.82519740005955,355.84638489969075,356.8350817998871,356.8350817998871,357.1646666000597,z,1,0.3157236003316939,None,507398,001,2024-10-16_15h03.31.052,motor sequence learning,2024.1.5,None,2024-10-16 15h03.42.046397 +0530,
-50,x,36,0,144,0,,,,,357.1862610997632,,357.1678770999424,357.1862610997632,358.1938815000467,358.1938815000467,358.1938815000467,358.1938815000467,358.22382929967716,359.18431379972026,359.18431379972026,359.6316669997759,x,1,0.42313550040125847,None,507398,001,2024-10-16_15h03.31.052,motor sequence learning,2024.1.5,None,2024-10-16 15h03.42.046397 +0530,
150,v,36,1,145,1,,,,,359.6545241996646,,359.63539549987763,359.6545241996646,360.6504655997269,360.6504655997269,360.6504655997269,360.6504655997269,360.67219569999725,361.6625590999611,361.6625590999611,361.998420199845,v,1,0.3215081999078393,None,507398,001,2024-10-16_15h03.31.052,motor sequence learning,2024.1.5,None,2024-10-16 15h03.42.046397 +0530,
50,c,36,2,146,2,,,,,362.0198979000561,,362.0019287997857,362.0198979000561,363.0181682999246,363.0181682999246,363.0181682999246,363.0181682999246,363.04040119983256,364.0325394999236,364.0325394999236,364.49305819999427,c,1,0.45751289976760745,None,507398,001,2024-10-16_15h03.31.052,motor sequence learning,2024.1.5,None,2024-10-16 15h03.42.046397 +0530,
-150,z,36,3,147,3,,,,,364.5165933999233,,364.4966975999996,364.5165933999233,365.51570170000196,365.51570170000196,365.51570170000196,365.51570170000196,365.5375263998285,366.501770099625,366.501770099625,366.919796299655,z,1,0.41144989989697933,None,507398,001,2024-10-16_15h03.31.052,motor sequence learning,2024.1.5,None,2024-10-16 15h03.42.046397 +0530,
-50,x,37,0,148,0,,,,,366.93898559967056,,366.92317810002714,366.93898559967056,367.93739439966157,367.93739439966157,367.93739439966157,367.93739439966157,367.95627739978954,368.933313800022,368.933313800022,369.394929099828,x,1,0.43733139988034964,None,507398,001,2024-10-16_15h03.31.052,motor sequence learning,2024.1.5,None,2024-10-16 15h03.42.046397 +0530,
150,v,37,1,149,1,,,,,369.41710599977523,,369.39843209972605,369.41710599977523,370.41500899987295,370.41500899987295,370.41500899987295,370.41500899987295,370.429832899943,371.4177770996466,371.4177770996466,371.7289990996942,v,1,0.3027468998916447,None,507398,001,2024-10-16_15h03.31.052,motor sequence learning,2024.1.5,None,2024-10-16 15h03.42.046397 +0530,
50,c,37,2,150,2,,,,,371.7478069998324,,371.7309074997902,371.7478069998324,372.74870819970965,372.74870819970965,372.74870819970965,372.74870819970965,372.76453269971535,373.76686019962654,373.76686019962654,374.14826599974185,c,1,0.3604302001185715,None,507398,001,2024-10-16_15h03.31.052,motor sequence learning,2024.1.5,None,2024-10-16 15h03.42.046397 +0530,
-150,z,37,3,151,3,,,,,374.1730887000449,,374.153377099894,374.1730887000449,375.16219309996814,375.16219309996814,375.16219309996814,375.16219309996814,375.1828357996419,376.16913669975474,376.16913669975474,376.5444415998645,z,1,0.35951719991862774,None,507398,001,2024-10-16_15h03.31.052,motor sequence learning,2024.1.5,None,2024-10-16 15h03.42.046397 +0530,
-50,x,38,0,152,0,,,,,376.565826700069,,376.5479679997079,376.565826700069,377.56013009976596,377.56013009976596,377.56013009976596,377.56013009976596,377.5809855000116,378.57508789980784,378.57508789980784,379.1482988996431,x,1,0.5582630997523665,None,507398,001,2024-10-16_15h03.31.052,motor sequence learning,2024.1.5,None,2024-10-16 15h03.42.046397 +0530,
150,v,38,1,153,1,,,,,379.1704751998186,,379.15236389962956,379.1704751998186,380.1710475999862,380.1710475999862,380.1710475999862,380.1710475999862,380.1951755997725,381.16276609990746,381.16276609990746,381.52216209983453,v,1,0.3546290001831949,None,507398,001,2024-10-16_15h03.31.052,motor sequence learning,2024.1.5,None,2024-10-16 15h03.42.046397 +0530,
50,c,38,2,154,2,,,,,381.5433352999389,,381.52592649962753,381.5433352999389,382.5408405996859,382.5408405996859,382.5408405996859,382.5408405996859,382.56534449988976,383.53688229992986,383.53688229992986,384.12053649965674,c,1,0.5790951000526547,None,507398,001,2024-10-16_15h03.31.052,motor sequence learning,2024.1.5,None,2024-10-16 15h03.42.046397 +0530,
-150,z,38,3,155,3,,,,,384.1412982996553,,384.12313129985705,384.1412982996553,385.1490062996745,385.1490062996745,385.1490062996745,385.1490062996745,385.1673745000735,386.1426752000116,386.1426752000116,386.6610308997333,z,1,0.49177319975569844,None,507398,001,2024-10-16_15h03.31.052,motor sequence learning,2024.1.5,None,2024-10-16 15h03.42.046397 +0530,
-50,x,39,0,156,0,,,,,386.68255959963426,,386.66453599976376,386.68255959963426,387.69147539976984,387.69147539976984,387.69147539976984,387.69147539976984,387.7149326996878,388.67753499979153,388.67753499979153,389.10987420007586,x,1,0.40586609998717904,None,507398,001,2024-10-16_15h03.31.052,motor sequence learning,2024.1.5,None,2024-10-16 15h03.42.046397 +0530,
150,v,39,1,157,1,,,,,389.1309960000217,,389.1132580996491,389.1309960000217,390.13225039979443,390.13225039979443,390.13225039979443,390.13225039979443,390.14875659998506,391.1213952000253,391.1213952000253,391.5133903999813,v,1,0.3768891002982855,None,507398,001,2024-10-16_15h03.31.052,motor sequence learning,2024.1.5,None,2024-10-16 15h03.42.046397 +0530,
50,c,39,2,158,2,,,,,391.53888869984075,,391.52046100003645,391.53888869984075,392.5340161998756,392.5340161998756,392.5340161998756,392.5340161998756,392.5486083999276,393.5438647996634,393.5438647996634,393.85928429989144,c,1,0.3020339999347925,None,507398,001,2024-10-16_15h03.31.052,motor sequence learning,2024.1.5,None,2024-10-16 15h03.42.046397 +0530,
-150,z,39,3,159,3,,,,,393.8807409000583,,393.8627999997698,393.8807409000583,394.88965189969167,394.88965189969167,394.88965189969167,394.88965189969167,394.9111190997064,395.8777939998545,395.8777939998545,396.2029375997372,z,1,0.31485849991440773,None,507398,001,2024-10-16_15h03.31.052,motor sequence learning,2024.1.5,None,2024-10-16 15h03.42.046397 +0530,
-50,x,40,0,160,0,,,,,396.22269849991426,,396.20534019963816,396.22269849991426,397.216303399764,397.216303399764,397.216303399764,397.216303399764,397.2314277999103,398.2475608000532,398.2475608000532,398.62937279976904,x,1,0.37586939986795187,None,507398,001,2024-10-16_15h03.31.052,motor sequence learning,2024.1.5,None,2024-10-16 15h03.42.046397 +0530,
150,v,40,1,161,1,,,,,398.6522987000644,,398.63513519987464,398.6522987000644,399.66056980006397,399.66056980006397,399.66056980006397,399.66056980006397,399.6929230000824,400.63867020001635,400.63867020001635,400.9592654998414,v,1,0.3166268998757005,None,507398,001,2024-10-16_15h03.31.052,motor sequence learning,2024.1.5,None,2024-10-16 15h03.42.046397 +0530,
50,c,40,2,162,2,,,,,400.98101519979537,,400.961507699918,400.98101519979537,401.9808833999559,401.9808833999559,401.9808833999559,401.9808833999559,401.9947669999674,402.97137570008636,402.97137570008636,403.3650937997736,c,1,0.391565699595958,None,507398,001,2024-10-16_15h03.31.052,motor sequence learning,2024.1.5,None,2024-10-16 15h03.42.046397 +0530,
-150,z,40,3,163,3,,,,,403.3873717999086,,403.3678838000633,403.3873717999086,404.37600809987634,404.37600809987634,404.37600809987634,404.37600809987634,404.3910396997817,405.3698944998905,405.3698944998905,405.70118979969993,z,1,0.31559590017423034,None,507398,001,2024-10-16_15h03.31.052,motor sequence learning,2024.1.5,None,2024-10-16 15h03.42.046397 +0530,
-50,x,41,0,164,0,,,,,405.723449899815,,405.70484100002795,405.723449899815,406.70770139992237,406.70770139992237,406.70770139992237,406.70770139992237,406.73330499976873,407.7185929999687,407.7185929999687,408.02497030002996,x,1,0.2927719997242093,None,507398,001,2024-10-16_15h03.31.052,motor sequence learning,2024.1.5,None,2024-10-16 15h03.42.046397 +0530,
150,v,41,1,165,1,,,,,408.04936429997906,,408.02660880004987,408.04936429997906,409.0518187000416,409.0518187000416,409.0518187000416,409.0518187000416,409.0518187000416,410.04577879980206,410.04577879980206,410.38245479995385,v,1,0.3163046999834478,None,507398,001,2024-10-16_15h03.31.052,motor sequence learning,2024.1.5,None,2024-10-16 15h03.42.046397 +0530,
50,c,41,2,166,2,,,,,410.4042424997315,,410.38618059968576,410.4042424997315,411.4022937999107,411.4022937999107,411.4022937999107,411.4022937999107,411.42540559964254,412.3960066996515,412.3960066996515,412.8324661999941,c,1,0.41846680035814643,None,507398,001,2024-10-16_15h03.31.052,motor sequence learning,2024.1.5,None,2024-10-16 15h03.42.046397 +0530,
-150,z,41,3,167,3,,,,,412.855057799723,,412.8360207998194,412.855057799723,413.8521054000594,413.8521054000594,413.8521054000594,413.8521054000594,413.873287699651,414.858614299912,414.858614299912,415.2074734000489,z,1,0.3298061997629702,None,507398,001,2024-10-16_15h03.31.052,motor sequence learning,2024.1.5,None,2024-10-16 15h03.42.046397 +0530,
-50,x,42,0,168,0,,,,,415.2276792000048,,415.21067599998787,415.2276792000048,416.24828989990056,416.24828989990056,416.24828989990056,416.24828989990056,416.28156799962744,417.2482700999826,417.2482700999826,417.79622519994155,x,1,0.54555629985407,None,507398,001,2024-10-16_15h03.31.052,motor sequence learning,2024.1.5,None,2024-10-16 15h03.42.046397 +0530,
150,v,42,1,169,1,,,,,417.8179524997249,,417.7992830998264,417.8179524997249,418.8118074997328,418.8118074997328,418.8118074997328,418.8118074997328,418.832570000086,419.8133400999941,419.8133400999941,420.13800809998065,v,1,0.3072247998788953,None,507398,001,2024-10-16_15h03.31.052,motor sequence learning,2024.1.5,None,2024-10-16 15h03.42.046397 +0530,
50,c,42,2,170,2,,,,,420.1587517000735,,420.1412010998465,420.1587517000735,421.1527177998796,421.1527177998796,421.1527177998796,421.1527177998796,421.1736768996343,422.1491884998977,422.1491884998977,422.6202132999897,c,1,0.4621426002122462,None,507398,001,2024-10-16_15h03.31.052,motor sequence learning,2024.1.5,None,2024-10-16 15h03.42.046397 +0530,
-150,z,42,3,171,3,,,,,422.64204289996997,,422.62324699992314,422.64204289996997,423.65064659994096,423.65064659994096,423.65064659994096,423.65064659994096,423.65064659994096,424.6392445997335,424.6392445997335,424.96611629985273,z,1,0.3209954001940787,None,507398,001,2024-10-16_15h03.31.052,motor sequence learning,2024.1.5,None,2024-10-16 15h03.42.046397 +0530,
-50,x,43,0,172,0,,,,,424.9872953998856,,424.96907510003075,424.9872953998856,425.99433819996193,425.99433819996193,425.99433819996193,425.99433819996193,426.0146670998074,426.97981119994074,426.97981119994074,427.516871499829,x,1,0.5335625000298023,None,507398,001,2024-10-16_15h03.31.052,motor sequence learning,2024.1.5,None,2024-10-16 15h03.42.046397 +0530,
150,v,43,1,173,1,,,,,427.53775279968977,,427.51998749980703,427.53775279968977,428.5300525999628,428.5300525999628,428.5300525999628,428.5300525999628,428.5489925998263,429.53107459982857,429.53107459982857,429.8922510999255,v,1,0.35581819992512465,None,507398,001,2024-10-16_15h03.31.052,motor sequence learning,2024.1.5,None,2024-10-16 15h03.42.046397 +0530,
50,c,43,2,174,2,,,,,429.91118100006133,,429.89434599969536,429.91118100006133,430.9125453000888,430.9125453000888,430.9125453000888,430.9125453000888,430.930603899993,431.89620789978653,431.89620789978653,432.3174511999823,c,1,0.41349999979138374,None,507398,001,2024-10-16_15h03.31.052,motor sequence learning,2024.1.5,None,2024-10-16 15h03.42.046397 +0530,
-150,z,43,3,175,3,,,,,432.3404661999084,,432.3208921998739,432.3404661999084,433.34611329995096,433.34611329995096,433.34611329995096,433.34611329995096,433.36549439979717,434.3319255998358,434.3319255998358,434.7552990000695,z,1,0.4188354001380503,None,507398,001,2024-10-16_15h03.31.052,motor sequence learning,2024.1.5,None,2024-10-16 15h03.42.046397 +0530,
-50,x,44,0,176,0,,,,,434.7765242997557,,434.76046529971063,434.7765242997557,435.77464130008593,435.77464130008593,435.77464130008593,435.77464130008593,435.7947960998863,436.76326469983906,436.76326469983906,437.3116202997044,x,1,0.5254456996917725,None,507398,001,2024-10-16_15h03.31.052,motor sequence learning,2024.1.5,None,2024-10-16 15h03.42.046397 +0530,
150,v,44,1,177,1,,,,,437.3335967999883,,437.31470909994096,437.3335967999883,438.31946709984913,438.31946709984913,438.31946709984913,438.31946709984913,438.33353789988905,439.32251799991354,439.32251799991354,439.75955969979987,v,1,0.41871989984065294,None,507398,001,2024-10-16_15h03.31.052,motor sequence learning,2024.1.5,None,2024-10-16 15h03.42.046397 +0530,
50,c,44,2,178,2,,,,,439.7830599998124,,439.76332789985463,439.7830599998124,440.7797131999396,440.7797131999396,440.7797131999396,440.7797131999396,440.7993671000004,441.772225999739,441.772225999739,443.03118290007114,c,1,1.2378604002296925,None,507398,001,2024-10-16_15h03.31.052,motor sequence learning,2024.1.5,None,2024-10-16 15h03.42.046397 +0530,
-150,z,44,3,179,3,,,,,443.0510350000113,,443.0339844999835,443.0510350000113,444.05519780004397,444.05519780004397,444.05519780004397,444.05519780004397,444.0751807997003,445.0610636998899,445.0610636998899,445.7464299998246,z,1,0.6820024000480771,None,507398,001,2024-10-16_15h03.31.052,motor sequence learning,2024.1.5,None,2024-10-16 15h03.42.046397 +0530,
-50,x,45,0,180,0,,,,,445.7712502996437,,445.75057350005955,445.7712502996437,446.7666250998154,446.7666250998154,446.7666250998154,446.7666250998154,446.7908546999097,447.769030299969,447.769030299969,448.1614779997617,x,1,0.383345500100404,None,507398,001,2024-10-16_15h03.31.052,motor sequence learning,2024.1.5,None,2024-10-16 15h03.42.046397 +0530,
150,v,45,1,181,1,,,,,448.1817946997471,,448.1639779997058,448.1817946997471,449.1720774997957,449.1720774997957,449.1720774997957,449.1720774997957,449.19093829998747,450.1802437999286,450.1802437999286,450.5135014997795,v,1,0.3234246000647545,None,507398,001,2024-10-16_15h03.31.052,motor sequence learning,2024.1.5,None,2024-10-16 15h03.42.046397 +0530,
50,c,45,2,182,2,,,,,450.53333699982613,,450.51628539990634,450.53333699982613,451.5347936996259,451.5347936996259,451.5347936996259,451.5347936996259,451.5509909996763,452.5189030999318,452.5189030999318,452.89451480004936,c,1,0.35130219999700785,None,507398,001,2024-10-16_15h03.31.052,motor sequence learning,2024.1.5,None,2024-10-16 15h03.42.046397 +0530,
-150,z,45,3,183,3,,,,,452.9160027997568,,452.89809389971197,452.9160027997568,453.9247460998595,453.9247460998595,453.9247460998595,453.9247460998595,453.9462435999885,454.91797759989277,454.91797759989277,455.2723530996591,z,1,0.3273758003488183,None,507398,001,2024-10-16_15h03.31.052,motor sequence learning,2024.1.5,None,2024-10-16 15h03.42.046397 +0530,
-50,x,46,0,184,0,,,,,455.29485079972073,,455.27583499997854,455.29485079972073,456.28877169964835,456.28877169964835,456.28877169964835,456.28877169964835,456.31136249983683,457.2754202000797,457.2754202000797,457.82382069993764,x,1,0.5445626000873744,None,507398,001,2024-10-16_15h03.31.052,motor sequence learning,2024.1.5,None,2024-10-16 15h03.42.046397 +0530,
150,v,46,1,185,1,,,,,457.8444137996994,,457.82634459994733,457.8444137996994,458.84198139980435,458.84198139980435,458.84198139980435,458.84198139980435,458.86215229984373,459.8305445997976,459.8305445997976,460.13594039995223,v,1,0.28745019994676113,None,507398,001,2024-10-16_15h03.31.052,motor sequence learning,2024.1.5,None,2024-10-16 15h03.42.046397 +0530,
50,c,46,2,186,2,,,,,460.1548322997987,,460.1393458000384,460.1548322997987,461.17030579969287,461.17030579969287,461.17030579969287,461.17030579969287,461.17030579969287,462.1470097997226,462.1470097997226,462.44473969982937,c,1,0.29291449999436736,None,507398,001,2024-10-16_15h03.31.052,motor sequence learning,2024.1.5,None,2024-10-16 15h03.42.046397 +0530,
-150,z,46,3,187,3,,,,,462.4697324000299,,462.44623309979215,462.4697324000299,463.4600366996601,463.4600366996601,463.4600366996601,463.4600366996601,463.47851809998974,464.4597572996281,464.4597572996281,464.86287659965456,z,1,0.3948630001395941,None,507398,001,2024-10-16_15h03.31.052,motor sequence learning,2024.1.5,None,2024-10-16 15h03.42.046397 +0530,
-50,x,47,0,188,0,,,,,464.88657799968496,,464.8666908000596,464.88657799968496,465.884915899951,465.884915899951,465.884915899951,465.884915899951,465.89727019984275,466.8708307999186,466.8708307999186,467.2909288997762,x,1,0.4151278003118932,None,507398,001,2024-10-16_15h03.31.052,motor sequence learning,2024.1.5,None,2024-10-16 15h03.42.046397 +0530,
150,v,47,1,189,1,,,,,467.3090420998633,,467.29231170006096,467.3090420998633,468.30742960004136,468.30742960004136,468.30742960004136,468.30742960004136,468.32201460003853,469.30391469970345,469.30391469970345,469.63343739975244,v,1,0.3277529999613762,None,507398,001,2024-10-16_15h03.31.052,motor sequence learning,2024.1.5,None,2024-10-16 15h03.42.046397 +0530,
50,c,47,2,190,2,,,,,469.65657139988616,,469.63633479969576,469.65657139988616,470.6461510998197,470.6461510998197,470.6461510998197,470.6461510998197,470.6648098998703,471.65407879976556,471.65407879976556,472.15786459995434,c,1,0.4950381997041404,None,507398,001,2024-10-16_15h03.31.052,motor sequence learning,2024.1.5,None,2024-10-16 15h03.42.046397 +0530,
-150,z,47,3,191,3,,,,,472.1791248000227,,472.1609114999883,472.1791248000227,473.1763987997547,473.1763987997547,473.1763987997547,473.1763987997547,473.1922251996584,474.176593599841,474.176593599841,474.5654947999865,z,1,0.37795899994671345,None,507398,001,2024-10-16_15h03.31.052,motor sequence learning,2024.1.5,None,2024-10-16 15h03.42.046397 +0530,
-50,x,48,0,192,0,,,,,474.58781370008364,,474.56882619997486,474.58781370008364,475.5802870998159,475.5802870998159,475.5802870998159,475.5802870998159,475.59274260001257,476.6201879000291,476.6201879000291,477.1562264999375,x,1,0.5224962001666427,None,507398,001,2024-10-16_15h03.31.052,motor sequence learning,2024.1.5,None,2024-10-16 15h03.42.046397 +0530,
150,v,48,1,193,1,,,,,477.17627659998834,,477.1591229997575,477.17627659998834,478.17900880007073,478.17900880007073,478.17900880007073,478.17900880007073,478.1939328997396,479.1686015999876,479.1686015999876,479.6492257998325,v,1,0.46261979965493083,None,507398,001,2024-10-16_15h03.31.052,motor sequence learning,2024.1.5,None,2024-10-16 15h03.42.046397 +0530,
50,c,48,2,194,2,,,,,479.6685838000849,,479.6513720997609,479.6685838000849,480.6595250996761,480.6595250996761,480.6595250996761,480.6595250996761,480.6755665000528,481.6747665996663,481.6747665996663,482.09650489967316,c,1,0.40102489991113544,None,507398,001,2024-10-16_15h03.31.052,motor sequence learning,2024.1.5,None,2024-10-16 15h03.42.046397 +0530,
-150,z,48,3,195,3,,,,,482.1179578998126,,482.09941799985245,482.1179578998126,483.1129103000276,483.1129103000276,483.1129103000276,483.1129103000276,483.13261149963364,484.1210829997435,484.1210829997435,484.45494579989463,z,1,0.3233421999029815,None,507398,001,2024-10-16_15h03.31.052,motor sequence learning,2024.1.5,None,2024-10-16 15h03.42.046397 +0530,
-50,x,49,0,196,0,,,,,484.47538459999487,,484.4577433997765,484.47538459999487,485.48073289962485,485.48073289962485,485.48073289962485,485.48073289962485,485.4998901998624,486.4615322998725,486.4615322998725,486.8451840998605,x,1,0.37370709981769323,None,507398,001,2024-10-16_15h03.31.052,motor sequence learning,2024.1.5,None,2024-10-16 15h03.42.046397 +0530,
150,v,49,1,197,1,,,,,486.8668233999051,,486.84770029969513,486.8668233999051,487.8550608996302,487.8550608996302,487.8550608996302,487.8550608996302,487.87359389988706,488.87075209990144,488.87075209990144,489.1855353997089,v,1,0.29940460016950965,None,507398,001,2024-10-16_15h03.31.052,motor sequence learning,2024.1.5,None,2024-10-16 15h03.42.046397 +0530,
50,c,49,2,198,2,,,,,489.2050926000811,,489.18793200002983,489.2050926000811,490.19405179983005,490.19405179983005,490.19405179983005,490.19405179983005,490.2096595996991,491.20850900001824,491.20850900001824,491.7037750999443,c,1,0.47681109979748726,None,507398,001,2024-10-16_15h03.31.052,motor sequence learning,2024.1.5,None,2024-10-16 15h03.42.046397 +0530,
-150,z,49,3,199,3,,,,,491.72791459970176,,491.70831110002473,491.72791459970176,492.731244799681,492.731244799681,492.731244799681,492.731244799681,492.7502379999496,493.72456469992176,493.72456469992176,494.0969418999739,z,1,0.36615899996832013,None,507398,001,2024-10-16_15h03.31.052,motor sequence learning,2024.1.5,None,2024-10-16 15h03.42.046397 +0530,
-150,z,,,,,0,0,0,3,494.1424068999477,,494.1262906999327,494.1424068999477,495.10903529962525,495.10903529962525,495.10903529962525,495.10903529962525,495.1501130000688,496.1140017998405,496.1140017998405,497.0208179000765,z,1,0.9020118997432292,None,507398,001,2024-10-16_15h03.31.052,motor sequence learning,2024.1.5,None,2024-10-16 15h03.42.046397 +0530,
-150,z,,,,,0,1,1,3,497.04405579995364,,497.0275518996641,497.04405579995364,498.0413031997159,498.0413031997159,498.0413031997159,498.0413031997159,498.0543189998716,499.0397775997408,499.0397775997408,499.69770989986137,z,1,0.6425901995971799,None,507398,001,2024-10-16_15h03.31.052,motor sequence learning,2024.1.5,None,2024-10-16 15h03.42.046397 +0530,
50,c,,,,,0,2,2,2,499.71800970006734,,499.70045239990577,499.71800970006734,500.7049439996481,500.7049439996481,500.7049439996481,500.7049439996481,500.71974619990215,501.7268769000657,501.7268769000657,502.66032189968973,c,1,0.9269624999724329,None,507398,001,2024-10-16_15h03.31.052,motor sequence learning,2024.1.5,None,2024-10-16 15h03.42.046397 +0530,
-50,x,,,,,0,3,3,0,502.68065920006484,,502.66288409987465,502.68065920006484,503.6688720998354,503.6688720998354,503.6688720998354,503.6688720998354,503.6870545996353,504.6739436998032,504.6739436998032,505.3597087999806,x,1,0.6823308002203703,None,507398,001,2024-10-16_15h03.31.052,motor sequence learning,2024.1.5,None,2024-10-16 15h03.42.046397 +0530,
-150,z,,,,,1,0,4,3,505.3828874998726,,505.36326209967956,505.3828874998726,506.3760653999634,506.3760653999634,506.3760653999634,506.3760653999634,506.4040902000852,507.3855091999285,507.3855091999285,508.09691639989614,z,1,0.6946793999522924,None,507398,001,2024-10-16_15h03.31.052,motor sequence learning,2024.1.5,None,2024-10-16 15h03.42.046397 +0530,
-150,z,,,,,1,1,5,3,508.1174790998921,,508.10046250000596,508.1174790998921,509.1310491999611,509.1310491999611,509.1310491999611,509.1310491999611,509.15866369986907,510.1178675000556,510.1178675000556,510.7160855997354,z,1,0.5866608000360429,None,507398,001,2024-10-16_15h03.31.052,motor sequence learning,2024.1.5,None,2024-10-16 15h03.42.046397 +0530,
50,c,,,,,1,2,6,2,510.7416435997002,,510.7182386997156,510.7416435997002,511.7316397000104,511.7316397000104,511.7316397000104,511.7316397000104,511.7477544997819,512.7547602998093,512.7547602998093,513.5507052997127,c,1,0.7922495999373496,None,507398,001,2024-10-16_15h03.31.052,motor sequence learning,2024.1.5,None,2024-10-16 15h03.42.046397 +0530,
150,v,,,,,1,3,7,1,513.5765499998815,,513.5573990996927,513.5765499998815,514.5866454998031,514.5866454998031,514.5866454998031,514.5866454998031,514.6203948999755,515.5640010996722,515.5640010996722,516.2062853998505,v,1,0.63836790015921,None,507398,001,2024-10-16_15h03.31.052,motor sequence learning,2024.1.5,None,2024-10-16 15h03.42.046397 +0530,
150,v,,,,,2,0,8,1,516.2249078997411,,516.2091756998561,516.2249078997411,517.2351270997897,517.2351270997897,517.2351270997897,517.2351270997897,517.2490852000192,518.2246407000348,518.2246407000348,518.8330188998953,v,1,0.6016024998389184,None,507398,001,2024-10-16_15h03.31.052,motor sequence learning,2024.1.5,None,2024-10-16 15h03.42.046397 +0530,
150,v,,,,,2,1,9,1,518.8522151997313,,518.8356379996985,518.8522151997313,519.8564015999436,519.8564015999436,519.8564015999436,519.8564015999436,519.8750505000353,520.8453409997746,520.8453409997746,521.4064702996984,v,1,0.5413791001774371,None,507398,001,2024-10-16_15h03.31.052,motor sequence learning,2024.1.5,None,2024-10-16 15h03.42.046397 +0530,
-150,z,,,,,2,2,10,3,521.4295941996388,,521.4104695999995,521.4295941996388,522.4138054000214,522.4138054000214,522.4138054000214,522.4138054000214,522.4303210000508,523.4402409996837,523.4402409996837,523.981773099862,z,1,0.5375832999125123,None,507398,001,2024-10-16_15h03.31.052,motor sequence learning,2024.1.5,None,2024-10-16 15h03.42.046397 +0530,
-50,x,,,,,2,3,11,0,524.003309499938,,523.9874889999628,524.003309499938,525.0076528000645,525.0076528000645,525.0076528000645,525.0076528000645,525.0257880999707,525.9953218996525,525.9953218996525,526.6319450000301,x,1,0.6241505001671612,None,507398,001,2024-10-16_15h03.31.052,motor sequence learning,2024.1.5,None,2024-10-16 15h03.42.046397 +0530,
-50,x,,,,,3,0,12,0,526.6522953999229,,526.6369465999305,526.6522953999229,527.6473586000502,527.6473586000502,527.6473586000502,527.6473586000502,527.6626752000302,528.6506512998603,528.6506512998603,529.4314819998108,x,1,0.7619790998287499,None,507398,001,2024-10-16_15h03.31.052,motor sequence learning,2024.1.5,None,2024-10-16 15h03.42.046397 +0530,
-50,x,,,,,3,1,13,0,529.4521653000265,,529.4367145998403,529.4521653000265,530.4622557996772,530.4622557996772,530.4622557996772,530.4622557996772,530.4880743999965,531.4559955997393,531.4559955997393,532.0377862998284,x,1,0.5666446997784078,None,507398,001,2024-10-16_15h03.31.052,motor sequence learning,2024.1.5,None,2024-10-16 15h03.42.046397 +0530,
50,c,,,,,3,2,14,2,532.0610521999188,,532.0406256997958,532.0610521999188,533.0512652997859,533.0512652997859,533.0512652997859,533.0512652997859,533.07066019997,534.0796651998535,534.0796651998535,534.6299168998376,c,1,0.5343511998653412,None,507398,001,2024-10-16_15h03.31.052,motor sequence learning,2024.1.5,None,2024-10-16 15h03.42.046397 +0530,
-150,z,,,,,3,3,15,3,534.6515112998895,,534.6351286997087,534.6515112998895,535.6591138998047,535.6591138998047,535.6591138998047,535.6591138998047,535.6817103000358,536.6457742997445,536.6457742997445,537.2380087999627,z,1,0.5832895999774337,None,507398,001,2024-10-16_15h03.31.052,motor sequence learning,2024.1.5,None,2024-10-16 15h03.42.046397 +0530,
50,c,,,,,4,0,16,2,537.2609858997166,,537.2416480998509,537.2609858997166,538.2616359996609,538.2616359996609,538.2616359996609,538.2616359996609,538.2780366996303,539.2458224999718,539.2458224999718,539.832803899888,c,1,0.5845897998660803,None,507398,001,2024-10-16_15h03.31.052,motor sequence learning,2024.1.5,None,2024-10-16 15h03.42.046397 +0530,
-150,z,,,,,4,1,17,3,539.855902899988,,539.83600689983,539.855902899988,540.8483226997778,540.8483226997778,540.8483226997778,540.8483226997778,540.8629063996486,541.8554059998132,541.8554059998132,542.2687185998075,z,1,0.40665729995816946,None,507398,001,2024-10-16_15h03.31.052,motor sequence learning,2024.1.5,None,2024-10-16 15h03.42.046397 +0530,
150,v,,,,,4,2,18,1,542.2893201997504,,542.2716663000174,542.2893201997504,543.2959133996628,543.2959133996628,543.2959133996628,543.2959133996628,543.3158530998044,544.2807032000273,544.2807032000273,544.6184244998731,v,1,0.32268380001187325,None,507398,001,2024-10-16_15h03.31.052,motor sequence learning,2024.1.5,None,2024-10-16 15h03.42.046397 +0530,
50,c,,,,,4,3,19,2,544.6414314997382,,544.62231219979,544.6414314997382,545.6282866997644,545.6282866997644,545.6282866997644,545.6282866997644,545.6441786000505,546.6480672997423,546.6480672997423,547.1857964000665,c,1,0.5223169000819325,None,507398,001,2024-10-16_15h03.31.052,motor sequence learning,2024.1.5,None,2024-10-16 15h03.42.046397 +0530,
-50,x,,,,,5,0,20,0,547.212387799751,,547.1909131999128,547.212387799751,548.2164159999229,548.2164159999229,548.2164159999229,548.2164159999229,548.2422247999348,549.2225771998055,549.2225771998055,549.8060284997337,x,1,0.5778978997841477,None,507398,001,2024-10-16_15h03.31.052,motor sequence learning,2024.1.5,None,2024-10-16 15h03.42.046397 +0530,
-50,x,,,,,5,1,21,0,549.8267383999191,,549.808896899689,549.8267383999191,550.8169791996479,550.8169791996479,550.8169791996479,550.8169791996479,550.8348095999099,551.8196016997099,551.8196016997099,552.4719328996725,c,0,0.6447723996825516,None,507398,001,2024-10-16_15h03.31.052,motor sequence learning,2024.1.5,None,2024-10-16 15h03.42.046397 +0530,
-150,z,,,,,5,2,22,3,552.493195399642,,552.475033799652,552.493195399642,553.4856382999569,553.4856382999569,553.4856382999569,553.4856382999569,553.5062679997645,554.4855301999487,554.4855301999487,555.1541555998847,z,1,0.6643390003591776,None,507398,001,2024-10-16_15h03.31.052,motor sequence learning,2024.1.5,None,2024-10-16 15h03.42.046397 +0530,
-50,x,,,,,5,3,23,0,555.1764195999131,,555.1584410998039,555.1764195999131,556.1877736998722,556.1877736998722,556.1877736998722,556.1877736998722,556.2097252998501,557.1756516997702,557.1756516997702,557.8157151998021,x,1,0.6351188998669386,None,507398,001,2024-10-16_15h03.31.052,motor sequence learning,2024.1.5,None,2024-10-16 15h03.42.046397 +0530,
-150,z,,,,,6,0,24,3,557.8391311997548,,557.8193041998893,557.8391311997548,558.8379159998149,558.8379159998149,558.8379159998149,558.8379159998149,558.8537718998268,559.8279324998148,559.8279324998148,560.4008589996956,z,1,0.5620560999959707,None,507398,001,2024-10-16_15h03.31.052,motor sequence learning,2024.1.5,None,2024-10-16 15h03.42.046397 +0530,
-50,x,,,,,6,1,25,0,560.4214220000431,,560.4034760999493,560.4214220000431,561.4238608996384,561.4238608996384,561.4238608996384,561.4238608996384,561.4564020996913,562.4190833000466,562.4190833000466,563.0733423996717,x,1,0.646809299942106,None,507398,001,2024-10-16_15h03.31.052,motor sequence learning,2024.1.5,None,2024-10-16 15h03.42.046397 +0530,
150,v,,,,,6,2,26,1,563.0942144999281,,563.0779897999018,563.0942144999281,564.1056391000748,564.1056391000748,564.1056391000748,564.1056391000748,564.1056391000748,565.0994568997994,565.0994568997994,565.7176700998098,v,1,0.6148437997326255,None,507398,001,2024-10-16_15h03.31.052,motor sequence learning,2024.1.5,None,2024-10-16 15h03.42.046397 +0530,
-50,x,,,,,6,3,27,0,565.7363875997253,,565.7195838000625,565.7363875997253,566.7401358997449,566.7401358997449,566.7401358997449,566.7401358997449,566.7401358997449,567.7413860997185,567.7413860997185,568.4603686998598,x,1,0.7100903000682592,None,507398,001,2024-10-16_15h03.31.052,motor sequence learning,2024.1.5,None,2024-10-16 15h03.42.046397 +0530,
-50,x,,,,,7,0,28,0,568.482690199744,,568.4634336996824,568.482690199744,569.47775359964,569.47775359964,569.47775359964,569.47775359964,569.4991075997241,570.474642300047,570.474642300047,571.0207274998538,x,1,0.5394275998696685,None,507398,001,2024-10-16_15h03.31.052,motor sequence learning,2024.1.5,None,2024-10-16 15h03.42.046397 +0530,
150,v,,,,,7,1,29,1,571.04195899982,,571.0256280000322,571.04195899982,572.0391441998072,572.0391441998072,572.0391441998072,572.0391441998072,572.0527653000318,573.0301060997881,573.0301060997881,573.630294600036,v,1,0.5765142999589443,None,507398,001,2024-10-16_15h03.31.052,motor sequence learning,2024.1.5,None,2024-10-16 15h03.42.046397 +0530,
50,c,,,,,7,2,30,2,573.6484356997535,,573.6320945997722,573.6484356997535,574.6514678997919,574.6514678997919,574.6514678997919,574.6514678997919,574.6514678997919,575.6366012999788,575.6366012999788,576.2302254000679,c,1,0.5852331998758018,None,507398,001,2024-10-16_15h03.31.052,motor sequence learning,2024.1.5,None,2024-10-16 15h03.42.046397 +0530,
-50,x,,,,,7,3,31,0,576.2492649997585,,576.2321616997942,576.2492649997585,577.2499563000165,577.2499563000165,577.2499563000165,577.2499563000165,577.2653230000287,578.2586101000197,578.2586101000197,578.9741774997674,x,1,0.6985843000002205,None,507398,001,2024-10-16_15h03.31.052,motor sequence learning,2024.1.5,None,2024-10-16 15h03.42.046397 +0530,
50,c,,,,,8,0,32,2,578.995919500012,,578.9772888999432,578.995919500012,579.9956575999968,579.9956575999968,579.9956575999968,579.9956575999968,580.0162097997963,580.9924355996773,580.9924355996773,582.0835897997022,c,1,1.0865299999713898,None,507398,001,2024-10-16_15h03.31.052,motor sequence learning,2024.1.5,None,2024-10-16 15h03.42.046397 +0530,
50,c,,,,,8,1,33,2,582.1080332999118,,582.0856014997698,582.1080332999118,583.0986803998239,583.0986803998239,583.0986803998239,583.0986803998239,583.1141955996864,584.0931458999403,584.0931458999403,584.7178631997667,c,1,0.6120090000331402,None,507398,001,2024-10-16_15h03.31.052,motor sequence learning,2024.1.5,None,2024-10-16 15h03.42.046397 +0530,
150,v,,,,,8,2,34,1,584.7410760000348,,584.7220749999397,584.7410760000348,585.7386547997594,585.7386547997594,585.7386547997594,585.7386547997594,585.7541004996747,586.7259766999632,586.7259766999632,587.3291039997712,v,1,0.5858831997029483,None,507398,001,2024-10-16_15h03.31.052,motor sequence learning,2024.1.5,None,2024-10-16 15h03.42.046397 +0530,
150,v,,,,,8,3,35,1,587.3485413999297,,587.3314088997431,587.3485413999297,588.3385278997011,588.3385278997011,588.3385278997011,588.3385278997011,588.3513561999425,589.341785099823,589.341785099823,589.7773822997697,v,1,0.41855259984731674,None,507398,001,2024-10-16_15h03.31.052,motor sequence learning,2024.1.5,None,2024-10-16 15h03.42.046397 +0530,
50,c,,,,,9,0,36,2,589.7974763000384,,589.7804387998767,589.7974763000384,590.7978129996918,590.7978129996918,590.7978129996918,590.7978129996918,590.8124225996435,591.7914884998463,591.7914884998463,592.5846066996455,c,1,0.7675169999711215,None,507398,001,2024-10-16_15h03.31.052,motor sequence learning,2024.1.5,None,2024-10-16 15h03.42.046397 +0530,
-150,z,,,,,9,1,37,3,592.6083868998103,,592.5907230996527,592.6083868998103,593.6104414998554,593.6104414998554,593.6104414998554,593.6104414998554,593.630981199909,594.6129421996884,594.6129421996884,595.2105526998639,z,1,0.5863604000769556,None,507398,001,2024-10-16_15h03.31.052,motor sequence learning,2024.1.5,None,2024-10-16 15h03.42.046397 +0530,
150,v,,,,,9,2,38,1,595.2288802000694,,595.2125850999728,595.2288802000694,596.2454884997569,596.2454884997569,596.2454884997569,596.2454884997569,596.2707948996685,597.2299116998911,597.2299116998911,597.8823503996246,v,1,0.6497701001353562,None,507398,001,2024-10-16_15h03.31.052,motor sequence learning,2024.1.5,None,2024-10-16 15h03.42.046397 +0530,
-150,z,,,,,9,3,39,3,597.9032372999936,,597.8871202999726,597.9032372999936,598.9104311000556,598.9104311000556,598.9104311000556,598.9104311000556,598.9104311000556,599.9079415998422,599.9079415998422,600.6101991999894,z,1,0.6745158000849187,None,507398,001,2024-10-16_15h03.31.052,motor sequence learning,2024.1.5,None,2024-10-16 15h03.42.046397 +0530,
150,v,,,,,10,0,40,1,600.6313988999464,,600.6134027000517,600.6313988999464,601.6372378999367,601.6372378999367,601.6372378999367,601.6372378999367,601.6581369000487,602.6309491996653,602.6309491996653,603.119860699866,v,1,0.4716978999786079,None,507398,001,2024-10-16_15h03.31.052,motor sequence learning,2024.1.5,None,2024-10-16 15h03.42.046397 +0530,
150,v,,,,,10,1,41,1,603.1410260996781,,603.1231129998341,603.1410260996781,604.1273623998277,604.1273623998277,604.1273623998277,604.1273623998277,604.1430744999088,605.1236497000791,605.1236497000791,605.5956144998781,v,1,0.4504550998099148,None,507398,001,2024-10-16_15h03.31.052,motor sequence learning,2024.1.5,None,2024-10-16 15h03.42.046397 +0530,
50,c,,,,,10,2,42,2,605.6177689000033,,605.6013060999103,605.6177689000033,606.6207997999154,606.6207997999154,606.6207997999154,606.6207997999154,606.635295199696,607.605241399724,607.605241399724,608.4209666997194,c,1,0.8028857000172138,None,507398,001,2024-10-16_15h03.31.052,motor sequence learning,2024.1.5,None,2024-10-16 15h03.42.046397 +0530,
50,c,,,,,10,3,43,2,608.4436098998412,,608.4247433999553,608.4436098998412,609.4412385998294,609.4412385998294,609.4412385998294,609.4412385998294,609.4625079999678,610.4389439998195,610.4389439998195,611.198480299674,c,1,0.7437129002064466,None,507398,001,2024-10-16_15h03.31.052,motor sequence learning,2024.1.5,None,2024-10-16 15h03.42.046397 +0530,
-50,x,,,,,11,0,44,0,611.2199661997147,,611.2008166997693,611.2199661997147,612.2150772996247,612.2150772996247,612.2150772996247,612.2150772996247,612.2303315000609,613.2056574998423,613.2056574998423,613.9400943000801,x,1,0.7215049001388252,None,507398,001,2024-10-16_15h03.31.052,motor sequence learning,2024.1.5,None,2024-10-16 15h03.42.046397 +0530,
50,c,,,,,11,1,45,2,613.9622774999589,,613.9436543998308,613.9622774999589,614.9634841000661,614.9634841000661,614.9634841000661,614.9634841000661,614.9783537997864,615.9519177996553,615.9519177996553,616.6324293999933,c,1,0.659757100045681,None,507398,001,2024-10-16_15h03.31.052,motor sequence learning,2024.1.5,None,2024-10-16 15h03.42.046397 +0530,
50,c,,,,,11,2,46,2,616.6520659998059,,616.6356720998883,616.6520659998059,617.6614717999473,617.6614717999473,617.6614717999473,617.6614717999473,617.6848410996608,618.6649835999124,618.6649835999124,619.3725013998337,c,1,0.6901503000408411,None,507398,001,2024-10-16_15h03.31.052,motor sequence learning,2024.1.5,None,2024-10-16 15h03.42.046397 +0530,
50,c,,,,,11,3,47,2,619.3916727998294,,619.3750910996459,619.3916727998294,620.3941790000536,620.3941790000536,620.3941790000536,620.3941790000536,620.4124974999577,621.3846041997895,621.3846041997895,621.8754137996584,c,1,0.4880705000832677,None,507398,001,2024-10-16_15h03.31.052,motor sequence learning,2024.1.5,None,2024-10-16 15h03.42.046397 +0530,
150,v,,,,,12,0,48,1,621.8960822997615,,621.8797831996344,621.8960822997615,622.9018008997664,622.9018008997664,622.9018008997664,622.9018008997664,622.9212507000193,623.9007351999171,623.9007351999171,624.4699336998165,v,1,0.5505976998247206,None,507398,001,2024-10-16_15h03.31.052,motor sequence learning,2024.1.5,None,2024-10-16 15h03.42.046397 +0530,
-150,z,,,,,12,1,49,3,624.4882362000644,,624.4719694997184,624.4882362000644,625.4852839000523,625.4852839000523,625.4852839000523,625.4852839000523,625.5052831997164,626.4813429000787,626.4813429000787,627.1538128000684,z,1,0.6498594000004232,None,507398,001,2024-10-16_15h03.31.052,motor sequence learning,2024.1.5,None,2024-10-16 15h03.42.046397 +0530,
50,c,,,,,12,2,50,2,627.1740570999682,,627.157016299665,627.1740570999682,628.1660767998546,628.1660767998546,628.1660767998546,628.1660767998546,628.1867617997341,629.1675384999253,629.1675384999253,629.8658083998598,c,1,0.6887857001274824,None,507398,001,2024-10-16_15h03.31.052,motor sequence learning,2024.1.5,None,2024-10-16 15h03.42.046397 +0530,
-150,z,,,,,12,3,51,3,629.8876501000486,,629.8689943999052,629.8876501000486,630.8830057000741,630.8830057000741,630.8830057000741,630.8830057000741,630.9029635996558,631.8914931998588,631.8914931998588,632.4279578998685,z,1,0.5323374001309276,None,507398,001,2024-10-16_15h03.31.052,motor sequence learning,2024.1.5,None,2024-10-16 15h03.42.046397 +0530,
-50,x,,,,,13,0,52,0,632.4470858997665,,632.4309235997498,632.4470858997665,633.4456300996244,633.4456300996244,633.4456300996244,633.4456300996244,633.4662970998324,634.460264199879,634.460264199879,635.0924183996394,x,1,0.6284439000301063,None,507398,001,2024-10-16_15h03.31.052,motor sequence learning,2024.1.5,None,2024-10-16 15h03.42.046397 +0530,
150,v,,,,,13,1,53,1,635.1177290999331,,635.0984771000221,635.1177290999331,636.125011799857,636.125011799857,636.125011799857,636.125011799857,636.1501040998846,637.1090404996648,637.1090404996648,637.7423245999962,v,1,0.6288819001056254,None,507398,001,2024-10-16_15h03.31.052,motor sequence learning,2024.1.5,None,2024-10-16 15h03.42.046397 +0530,
150,v,,,,,13,2,54,1,637.7620991999283,,637.7458023000509,637.7620991999283,638.7599458997138,638.7599458997138,638.7599458997138,638.7599458997138,638.781128199771,639.7589096999727,639.7589096999727,640.3202434997074,v,1,0.5541666997596622,None,507398,001,2024-10-16_15h03.31.052,motor sequence learning,2024.1.5,None,2024-10-16 15h03.42.046397 +0530,
-50,x,,,,,13,3,55,0,640.341387399938,,640.3233973998576,640.341387399938,641.3392237997614,641.3392237997614,641.3392237997614,641.3392237997614,641.3577205999754,642.3420565999113,642.3420565999113,643.1097287996672,x,1,0.7490665004588664,None,507398,001,2024-10-16_15h03.31.052,motor sequence learning,2024.1.5,None,2024-10-16 15h03.42.046397 +0530,
150,v,,,,,14,0,56,1,643.1311886999756,,643.1128414999694,643.1311886999756,644.1260277996771,644.1260277996771,644.1260277996771,644.1260277996771,644.1462532998994,645.1219504997134,645.1219504997134,645.7547434000298,v,1,0.6258153999224305,None,507398,001,2024-10-16_15h03.31.052,motor sequence learning,2024.1.5,None,2024-10-16 15h03.42.046397 +0530,
-150,z,,,,,14,1,57,3,645.7758096996695,,645.7584672998637,645.7758096996695,646.7729809000157,646.7729809000157,646.7729809000157,646.7729809000157,646.7885266998783,647.7709979000501,647.7709979000501,648.343243399635,z,1,0.5647409996017814,None,507398,001,2024-10-16_15h03.31.052,motor sequence learning,2024.1.5,None,2024-10-16 15h03.42.046397 +0530,
-150,z,,,,,14,2,58,3,648.3617413998581,,648.344986199867,648.3617413998581,649.3625018000603,649.3625018000603,649.3625018000603,649.3625018000603,649.3625018000603,650.3540288996883,650.3540288996883,650.9902995000593,z,1,0.6041898997500539,None,507398,001,2024-10-16_15h03.31.052,motor sequence learning,2024.1.5,None,2024-10-16 15h03.42.046397 +0530,
50,c,,,,,14,3,59,2,651.016765799839,,650.996742699761,651.016765799839,652.0115446997806,652.0115446997806,652.0115446997806,652.0115446997806,652.0268299998716,653.010735000018,653.010735000018,653.8235265999101,c,1,0.7997511001303792,None,507398,001,2024-10-16_15h03.31.052,motor sequence learning,2024.1.5,None,2024-10-16 15h03.42.046397 +0530,
150,v,,,,,15,0,60,1,653.8443077998236,,653.8279160996899,653.8443077998236,654.8352981996723,654.8352981996723,654.8352981996723,654.8352981996723,654.8525399998762,655.862356999889,655.862356999889,656.3748548999429,v,1,0.4934630999341607,None,507398,001,2024-10-16_15h03.31.052,motor sequence learning,2024.1.5,None,2024-10-16 15h03.42.046397 +0530,
-50,x,,,,,15,1,61,0,656.3964432999492,,656.3780231000856,656.3964432999492,657.3936083996668,657.3936083996668,657.3936083996668,657.3936083996668,657.4149619997479,658.4022252997383,658.4022252997383,659.1099450998008,x,1,0.7051670998334885,None,507398,001,2024-10-16_15h03.31.052,motor sequence learning,2024.1.5,None,2024-10-16 15h03.42.046397 +0530,
150,v,,,,,15,2,62,1,659.1313363998197,,659.1130667999387,659.1313363998197,660.1299372999929,660.1299372999929,660.1299372999929,660.1299372999929,660.1454655998386,661.1190295997076,661.1190295997076,661.6597146997228,v,1,0.5286209997721016,None,507398,001,2024-10-16_15h03.31.052,motor sequence learning,2024.1.5,None,2024-10-16 15h03.42.046397 +0530,
-50,x,,,,,15,3,63,0,661.6798984999768,,661.6622350998223,661.6798984999768,662.6789563996717,662.6789563996717,662.6789563996717,662.6789563996717,662.6936327000149,663.6805274998769,663.6805274998769,664.3200937998481,x,1,0.6223943000659347,None,507398,001,2024-10-16_15h03.31.052,motor sequence learning,2024.1.5,None,2024-10-16 15h03.42.046397 +0530,
-50,x,,,,,16,0,64,0,664.3407083996572,,664.3225985998288,664.3407083996572,665.3379351999611,665.3379351999611,665.3379351999611,665.3379351999611,665.3566568996757,666.3561803996563,666.3561803996563,666.8973921998404,x,1,0.5157741000875831,None,507398,001,2024-10-16_15h03.31.052,motor sequence learning,2024.1.5,None,2024-10-16 15h03.42.046397 +0530,
-50,x,,,,,16,1,65,0,666.9194535999559,,666.9029815997928,666.9194535999559,667.9227585997432,667.9227585997432,667.9227585997432,667.9227585997432,667.9475476997904,668.9158671000041,668.9158671000041,669.4543365999125,x,1,0.5313447001390159,None,507398,001,2024-10-16_15h03.31.052,motor sequence learning,2024.1.5,None,2024-10-16 15h03.42.046397 +0530,
50,c,,,,,16,2,66,2,669.4753334000707,,669.457421799656,669.4753334000707,670.4762281998992,670.4762281998992,670.4762281998992,670.4762281998992,670.4963622000068,671.4718348998576,671.4718348998576,672.1263939999044,c,1,0.634725300129503,None,507398,001,2024-10-16_15h03.31.052,motor sequence learning,2024.1.5,None,2024-10-16 15h03.42.046397 +0530,
-50,x,,,,,16,3,67,0,672.1500626998022,,672.1294597000815,672.1500626998022,673.1411917996593,673.1411917996593,673.1411917996593,673.1411917996593,673.1670809998177,674.1520149996504,674.1520149996504,674.7996169999242,x,1,0.63269819971174,None,507398,001,2024-10-16_15h03.31.052,motor sequence learning,2024.1.5,None,2024-10-16 15h03.42.046397 +0530,
150,v,,,,,17,0,68,1,674.8211023998447,,674.8015395998955,674.8211023998447,675.8204100998119,675.8204100998119,675.8204100998119,675.8204100998119,675.8323438996449,676.8134726998396,676.8134726998396,677.3727313997224,v,1,0.5411705998703837,None,507398,001,2024-10-16_15h03.31.052,motor sequence learning,2024.1.5,None,2024-10-16 15h03.42.046397 +0530,
50,c,,,,,17,1,69,2,677.3929667999037,,677.3758993996307,677.3929667999037,678.391458499711,678.391458499711,678.391458499711,678.391458499711,678.4180334997363,679.3929918999784,679.3929918999784,679.9782738997601,c,1,0.5620561996474862,None,507398,001,2024-10-16_15h03.31.052,motor sequence learning,2024.1.5,None,2024-10-16 15h03.42.046397 +0530,
-50,x,,,,,17,2,70,0,679.9998876000755,,679.9835429000668,679.9998876000755,681.0099931000732,681.0099931000732,681.0099931000732,681.0099931000732,681.0316320997663,682.0110821998678,682.0110821998678,682.5685184998438,x,1,0.5439674998633564,None,507398,001,2024-10-16_15h03.31.052,motor sequence learning,2024.1.5,None,2024-10-16 15h03.42.046397 +0530,
50,c,,,,,17,3,71,2,682.5931726996787,,682.5719628999941,682.5931726996787,683.5883027999662,683.5883027999662,683.5883027999662,683.5883027999662,683.614229099825,684.5900338999927,684.5900338999927,685.2331556999125,c,1,0.6300395000725985,None,507398,001,2024-10-16_15h03.31.052,motor sequence learning,2024.1.5,None,2024-10-16 15h03.42.046397 +0530,
-50,x,,,,,18,0,72,0,685.2528074998409,,685.236810399685,685.2528074998409,686.2578773996793,686.2578773996793,686.2578773996793,686.2578773996793,686.2798953000456,687.2565584997647,687.2565584997647,687.8702741996385,x,1,0.6088919001631439,None,507398,001,2024-10-16_15h03.31.052,motor sequence learning,2024.1.5,None,2024-10-16 15h03.42.046397 +0530,
-150,z,,,,,18,1,73,3,687.8919755998068,,687.8737013996579,687.8919755998068,688.8877969998866,688.8877969998866,688.8877969998866,688.8877969998866,688.9104801998474,689.900601499714,689.900601499714,690.3928932999261,z,1,0.4850181001238525,None,507398,001,2024-10-16_15h03.31.052,motor sequence learning,2024.1.5,None,2024-10-16 15h03.42.046397 +0530,
-50,x,,,,,18,2,74,0,690.4192218999378,,690.4003078998066,690.4192218999378,691.4132483000867,691.4132483000867,691.4132483000867,691.4132483000867,691.4327827999368,692.4142779000103,692.4142779000103,693.1211854997091,x,1,0.683731600176543,None,507398,001,2024-10-16_15h03.31.052,motor sequence learning,2024.1.5,None,2024-10-16 15h03.42.046397 +0530,
150,v,,,,,18,3,75,1,693.1408305997029,,693.1239519999363,693.1408305997029,694.1421686997637,694.1421686997637,694.1421686997637,694.1421686997637,694.1626510997303,695.1338537996635,695.1338537996635,695.7750821998343,v,1,0.627524099778384,None,507398,001,2024-10-16_15h03.31.052,motor sequence learning,2024.1.5,None,2024-10-16 15h03.42.046397 +0530,
50,c,,,,,19,0,76,2,695.7980347997509,,695.7813463998027,695.7980347997509,696.8066165996715,696.8066165996715,696.8066165996715,696.8066165996715,696.8066165996715,697.7932871999219,697.7932871999219,698.2714808997698,c,1,0.4742304002866149,None,507398,001,2024-10-16_15h03.31.052,motor sequence learning,2024.1.5,None,2024-10-16 15h03.42.046397 +0530,
-50,x,,,,,19,1,77,0,698.2941486998461,,698.2750168996863,698.2941486998461,699.3010080996901,699.3010080996901,699.3010080996901,699.3010080996901,699.3311391999014,700.2921503996477,700.2921503996477,700.8642603000626,x,1,0.5505454000085592,None,507398,001,2024-10-16_15h03.31.052,motor sequence learning,2024.1.5,None,2024-10-16 15h03.42.046397 +0530,
