delay,freq,condition,trials.thisRepN,trials.thisTrialN,trials.thisN,trials.thisIndex,thisRow.t,notes,trial.started,polygon.started,polygon_2.started,key_resp.started,polygon.stopped,trial.stopped,key_resp.keys,key_resp.rt,key_resp.duration,beep.started,sound_1.started,sound_1.stopped,beep.stopped,response.started,text.started,textbox.started,button.started,response.stopped,textbox.text,button.numClicks,button.timesOn,button.timesOff,participant,session,date,expName,psychopyVersion,frameRate,expStart
0.4,1000,exp,0,0,0,7,0.0367938,,0.0261298,0.0367938,1.0163128,1.0163128,1.0489662,11.0093718,space,9.8135745,None,11.0150686,11.42900877,11.7799853,11.7287809,11.7288582,11.7799853,11.7799853,11.7799853,24.7013073,300,1,[12.966206599958241],[12.966257599880919],868958,1,2024-11-14_20h56.52.259,intentional binding exp,2024.1.5,None,2024-11-14 20h57.07.555199 +0530
0.4,400,unexp,0,1,1,1,24.7151146,,24.7055556,24.7151146,25.7093523,25.7093523,25.7259744,26.096131,space,0.3840636,None,26.0978785,26.51023397,26.8569455,26.8088438,26.8089254,26.8569455,26.8569455,26.8569455,33.4833079,100,1,[6.669931800104678],[6.669959699967876],868958,1,2024-11-14_20h56.52.259,intentional binding exp,2024.1.5,None,2024-11-14 20h57.07.555199 +0530
0.4,1000,exp,0,2,2,10,33.5012444,,33.4883384,33.5012444,34.4911319,34.4911319,34.5079518,34.8107675,space,0.3105412,None,34.8123539,35.22431547,35.5572243,35.5284651,35.5285322,35.5572243,35.5572243,35.5572243,39.5300375,400,1,[3.9972961999010295],[3.9973178999498487],868958,1,2024-11-14_20h56.52.259,intentional binding exp,2024.1.5,None,2024-11-14 20h57.07.555199 +0530
0.1,1000,exp,0,3,3,3,39.553238,,39.5315421,39.553238,40.5395764,40.5395764,40.5559006,40.9418436,space,0.3886818,None,40.9432299,41.05574587,41.3992596,41.3587477,41.3588125,41.3992596,41.3992596,41.3992596,46.0664532,200,1,[4.704432099824771],[4.7044494999572635],868958,1,2024-11-14_20h56.52.259,intentional binding exp,2024.1.5,None,2024-11-14 20h57.07.555199 +0530
0.7,400,unexp,0,4,4,2,46.0873938,,46.0683392,46.0873938,47.0710016,47.0710016,47.087465,47.6247136,space,0.5411442,None,47.6264363,48.33777337,48.6833981,48.6388557,48.6389379,48.6833981,48.6833981,48.6833981,55.9539832,400,1,[7.31136679998599],[7.311380399856716],868958,1,2024-11-14_20h56.52.259,intentional binding exp,2024.1.5,None,2024-11-14 20h57.07.555199 +0530
0.1,400,unexp,0,5,5,0,55.9683417,,55.9552832,55.9683417,56.9685244,56.9685244,56.9685244,58.1208907,space,1.149083,None,58.1225308,58.23507797,58.5797865,58.5381814,58.5382452,58.5797865,58.5797865,58.5797865,62.067847,"500
",1,[3.526150200050324],[3.5261672001797706],868958,1,2024-11-14_20h56.52.259,intentional binding exp,2024.1.5,None,2024-11-14 20h57.07.555199 +0530
0.4,1000,exp,0,6,6,4,62.0837523,,62.0698161,62.0837523,63.0841479,63.0841479,63.0841479,63.3866815,space,0.2877748,None,63.3880379,63.79997907,64.1379563,64.0987088,64.0987735,64.1379563,64.1379563,64.1379563,69.0516712,600,1,[4.949656700016931],[4.949670099886134],868958,1,2024-11-14_20h56.52.259,intentional binding exp,2024.1.5,None,2024-11-14 20h57.07.555199 +0530
0.7,1000,exp,0,7,7,5,69.0655421,,69.0531645,69.0655421,70.0655152,70.0655152,70.0655152,71.2193687,space,1.1351527,None,71.2207523,71.93310117,72.2895737,72.2288752,72.2289695,72.2895737,72.2895737,72.2895737,75.2807661,300,1,[3.046941600041464],[3.046963900094852],868958,1,2024-11-14_20h56.52.259,intentional binding exp,2024.1.5,None,2024-11-14 20h57.07.555199 +0530
0.1,1000,exp,0,8,8,6,75.2974094,,75.2830753,75.2974094,76.2973876,76.2973876,76.2973876,78.1663702,space,1.8561353,None,78.1677529,78.28038007,78.6042984,78.5780172,78.5780601,78.6042984,78.6042984,78.6042984,82.8585226,200,1,[4.2756711998954415],[4.275705700041726],868958,1,2024-11-14_20h56.52.259,intentional binding exp,2024.1.5,None,2024-11-14 20h57.07.555199 +0530
0.7,1000,exp,0,9,9,8,82.8711435,,82.8606354,82.8711435,83.8626799,83.8626799,83.8791545,84.6651849,space,0.7907093,None,84.6667046,85.37876827,85.7395839,85.6783386,85.6784143,85.7395839,85.7395839,85.7395839,89.2276931,600,1,[3.5447678999044],[3.5448213999625295],868958,1,2024-11-14_20h56.52.259,intentional binding exp,2024.1.5,None,2024-11-14 20h57.07.555199 +0530
0.7,1000,exp,0,10,10,11,89.2460914,,89.2318313,89.2460914,90.2445385,90.2445385,90.2611225,91.1639885,space,0.9134634,None,91.1655221,91.87730057,92.2257399,92.178499,92.1785937,92.2257399,92.2257399,92.2257399,94.9247255,300,1,[2.742355100112036],[2.742374600144103],868958,1,2024-11-14_20h56.52.259,intentional binding exp,2024.1.5,None,2024-11-14 20h57.07.555199 +0530
0.1,1000,exp,0,11,11,9,94.9428908,,94.9268729,94.9428908,95.925591,95.925591,95.9426664,96.3450959,space,0.4109905,None,96.346451,96.45916787,96.7809028,96.7582807,96.7583219,96.7809028,96.7809028,96.7809028,100.4062057,400,1,[3.6450800001621246],[3.64509560004808],868958,1,2024-11-14_20h56.52.259,intentional binding exp,2024.1.5,None,2024-11-14 20h57.07.555199 +0530
0.4,1000,exp,1,0,12,4,100.4248566,,100.4082203,100.4248566,101.4082662,101.4082662,101.4245834,101.7437374,space,0.3204087,None,101.7450939,102.1577325,102.4967518,102.458086,102.4581516,102.4967518,102.4967518,102.4967518,106.3884417,500,1,[3.927017099922523],[3.927035399945453],868958,1,2024-11-14_20h56.52.259,intentional binding exp,2024.1.5,None,2024-11-14 20h57.07.555199 +0530
0.1,1000,exp,1,1,13,9,106.4063819,,106.3905137,106.4063819,107.3893908,107.3893908,107.4063647,107.7746817,space,0.3708699,None,107.7756906,107.889494,108.225922,108.1880437,108.1880847,108.225922,108.225922,108.225922,111.8692338,200,1,[3.678330200025812],[3.678342300001532],868958,1,2024-11-14_20h56.52.259,intentional binding exp,2024.1.5,None,2024-11-14 20h57.07.555199 +0530
0.1,400,unexp,1,2,14,0,111.888419,,111.8705692,111.888419,112.8718729,112.8718729,112.8889634,113.174831,space,0.297352,None,113.1761874,113.2890212,113.6254629,113.5883437,113.5884386,113.6254629,113.6254629,113.6254629,115.813497,300,1,[2.221439099870622],[2.221459199907258],868958,1,2024-11-14_20h56.52.259,intentional binding exp,2024.1.5,None,2024-11-14 20h57.07.555199 +0530
0.4,1000,exp,1,3,15,10,115.8301366,,115.8197545,115.8301366,116.8216803,116.8216803,116.8381947,117.7087222,space,0.8840641,None,117.7105322,118.1214382,118.4633891,118.4183893,118.4184722,118.4633891,118.4633891,118.4633891,121.6432668,300,1,[3.2205121000297368],[3.2205337998457253],868958,1,2024-11-14_20h56.52.259,intentional binding exp,2024.1.5,None,2024-11-14 20h57.07.555199 +0530
0.4,1000,exp,1,4,16,7,121.6580549,,121.6458056,121.6580549,122.6551228,122.6551228,122.6699095,123.0720428,space,0.4030912,None,123.073383,123.4861838,123.8261736,123.7883993,123.7884626,123.8261736,123.8261736,123.8261736,127.4769866,100,1,[3.684817200060934],[3.684859599918127],868958,1,2024-11-14_20h56.52.259,intentional binding exp,2024.1.5,None,2024-11-14 20h57.07.555199 +0530
0.7,1000,exp,1,5,17,11,127.4918817,,127.4812729,127.4918817,128.4849032,128.4849032,128.5014837,129.0554559,space,0.5522199,None,129.0568577,129.7680242,130.1082189,130.0684532,130.0685177,130.1082189,130.1082189,130.1082189,134.470079,400,1,[4.398554699961096],[4.398565900046378],868958,1,2024-11-14_20h56.52.259,intentional binding exp,2024.1.5,None,2024-11-14 20h57.07.555199 +0530
0.7,1000,exp,1,6,18,8,134.4833628,,134.4715429,134.4833628,135.4830506,135.4830506,135.4830506,135.7690653,space,0.2816279,None,135.7704668,136.482971,136.8174721,136.7791198,136.7792083,136.8174721,136.8174721,136.8174721,140.606898,700,1,[3.824201999930665],[3.824219499947503],868958,1,2024-11-14_20h56.52.259,intentional binding exp,2024.1.5,None,2024-11-14 20h57.07.555199 +0530
0.1,1000,exp,1,7,19,6,140.6295053,,140.6107826,140.6295053,141.6154711,141.6154711,141.6321835,142.1361418,space,0.5170992,None,142.1376327,142.2486771,142.5767619,142.5482816,142.5483366,142.5767619,142.5767619,142.5767619,146.4230293,800,1,[3.871718400157988],[3.8717420001048595],868958,1,2024-11-14_20h56.52.259,intentional binding exp,2024.1.5,None,2024-11-14 20h57.07.555199 +0530
0.4,400,unexp,1,8,20,1,146.4371215,,146.4268012,146.4371215,147.4305189,147.4305189,147.4469473,147.7151551,space,0.2779236,None,147.7160067,148.1297791,148.4784548,148.4286843,148.4287679,148.4784548,148.4784548,148.4784548,150.6417777,600,1,[2.2073045999277383],[2.20732509996742],868958,1,2024-11-14_20h56.52.259,intentional binding exp,2024.1.5,None,2024-11-14 20h57.07.555199 +0530
0.7,400,unexp,1,9,21,2,150.6604187,,150.643678,150.6604187,151.6457799,151.6457799,151.6626153,151.9310016,space,0.2806582,None,151.9319435,152.6461423,153.0041624,152.9489631,152.949035,153.0041624,153.0041624,153.0041624,155.2591159,700,1,[2.305945700034499],[2.3059672000817955],868958,1,2024-11-14_20h56.52.259,intentional binding exp,2024.1.5,None,2024-11-14 20h57.07.555199 +0530
0.1,1000,exp,1,10,22,3,155.278331,,155.2610666,155.278331,156.2622651,156.2622651,156.2791891,156.596692,space,0.3311526,None,156.5975841,156.711756,157.0536425,157.0085787,157.0086508,157.0536425,157.0536425,157.0536425,159.9931739,800,1,[2.9802874999586493],[2.9803174000699073],868958,1,2024-11-14_20h56.52.259,intentional binding exp,2024.1.5,None,2024-11-14 20h57.07.555199 +0530
0.7,1000,exp,1,11,23,5,160.0099612,,159.9964441,160.0099612,160.9944192,160.9944192,161.0107133,161.6306616,space,0.6288739,None,161.6322567,162.3439989,162.6908238,162.648838,162.6489097,162.6908238,162.6908238,162.6908238,165.7203282,300,1,[3.0667622999753803],[3.06680339993909],868958,1,2024-11-14_20h56.52.259,intentional binding exp,2024.1.5,None,2024-11-14 20h57.07.555199 +0530
0.7,1000,exp,2,0,24,8,165.733326,,165.7229533,165.733326,166.7259848,166.7259848,166.7422932,167.1949775,space,0.45426,None,167.1964858,167.9090496,168.2611811,168.2084269,168.2085009,168.2611811,168.2611811,168.2611811,170.7263806,400,1,[2.514663599897176],[2.5146782000083476],868958,1,2024-11-14_20h56.52.259,intentional binding exp,2024.1.5,None,2024-11-14 20h57.07.555199 +0530
0.7,1000,exp,2,1,25,11,170.7413045,,170.7283792,170.7413045,171.740826,171.740826,171.740826,172.0107468,space,0.2653304,None,172.0123446,172.7245329,173.0686503,173.0288615,173.028925,173.0686503,173.0686503,173.0686503,176.0929161,400,1,[3.060545099899173],[3.060574200004339],868958,1,2024-11-14_20h56.52.259,intentional binding exp,2024.1.5,None,2024-11-14 20h57.07.555199 +0530
0.7,1000,exp,2,2,26,5,176.1072302,,176.0946897,176.1072302,177.1066707,177.1066707,177.1066707,177.7941266,space,0.6686941,None,177.7954816,178.5064698,178.8455165,178.8085107,178.8085752,178.8455165,178.8455165,178.8455165,181.108448,500,1,[2.2966314000077546],[2.2966491000261158],868958,1,2024-11-14_20h56.52.259,intentional binding exp,2024.1.5,None,2024-11-14 20h57.07.555199 +0530
0.1,1000,exp,2,3,27,9,181.1225246,,181.1100217,181.1225246,182.1218524,182.1218524,182.1218524,184.5741809,space,2.442765,None,184.5754283,184.6882819,185.0248742,184.988657,184.9887143,185.0248742,185.0248742,185.0248742,187.7036111,500,1,[2.7117680001538247],[2.7117864000611007],868958,1,2024-11-14_20h56.52.259,intentional binding exp,2024.1.5,None,2024-11-14 20h57.07.555199 +0530
0.4,1000,exp,2,4,28,4,187.720748,,187.7054264,187.720748,188.7045098,188.7045098,188.7211561,189.2404822,space,0.5236701,None,189.2420353,189.654113,189.9997359,189.9584049,189.9584757,189.9997359,189.9997359,189.9997359,192.3797113,100,1,[2.4173119999468327],[2.4173266000580043],868958,1,2024-11-14_20h56.52.259,intentional binding exp,2024.1.5,None,2024-11-14 20h57.07.555199 +0530
0.7,400,unexp,2,5,29,2,192.4006193,,192.3825124,192.4006193,193.3863807,193.3863807,193.4030135,194.2387646,space,0.8446719,None,194.2401978,194.9522736,195.2885746,195.2490539,195.2491406,195.2885746,195.2885746,195.2885746,198.2498914,300,1,[2.997481800150126],[2.9974996999371797],868958,1,2024-11-14_20h56.52.259,intentional binding exp,2024.1.5,None,2024-11-14 20h57.07.555199 +0530
0.4,400,unexp,2,6,30,1,198.2681335,,198.25182,198.2681335,199.2520901,199.2520901,199.2684865,200.1878646,space,0.9245905,None,200.1893795,200.6008623,200.9411912,200.8989448,200.8990412,200.9411912,200.9411912,200.9411912,203.2550702,400,1,[2.3519330001436174],[2.351959800114855],868958,1,2024-11-14_20h56.52.259,intentional binding exp,2024.1.5,None,2024-11-14 20h57.07.555199 +0530
0.4,1000,exp,2,7,31,7,203.2711442,,203.2579925,203.2711442,204.2674672,204.2674672,204.2839831,204.4204651,space,0.1418096,None,204.4219676,204.8336129,205.1870837,205.1385705,205.138667,205.1870837,205.1870837,205.1870837,207.7029467,250,1,[2.5606341001112014],[2.560656800167635],868958,1,2024-11-14_20h56.52.259,intentional binding exp,2024.1.5,None,2024-11-14 20h57.07.555199 +0530
0.1,400,unexp,2,8,32,0,207.7172232,,207.7049029,207.7172232,208.7164351,208.7164351,208.7164351,209.03614,space,0.3164211,None,209.0378314,209.1494453,209.4955978,209.4487411,209.4488136,209.4955978,209.4955978,209.4955978,212.3522356,300,1,[2.8996186000294983],[2.89963739993982],868958,1,2024-11-14_20h56.52.259,intentional binding exp,2024.1.5,None,2024-11-14 20h57.07.555199 +0530
0.1,1000,exp,2,9,33,6,212.3664318,,212.3538396,212.3664318,213.3645457,213.3645457,213.3814236,214.7692838,space,1.3860412,None,214.7705676,214.8811383,215.2187216,215.1787379,215.1788033,215.2187216,215.2187216,215.2187216,217.7270609,400,1,[2.5425345001276582],[2.5425589000806212],868958,1,2024-11-14_20h56.52.259,intentional binding exp,2024.1.5,None,2024-11-14 20h57.07.555199 +0530
0.1,1000,exp,2,10,34,3,217.7393771,,217.7292111,217.7393771,218.7303928,218.7303928,218.7467816,219.1159755,space,0.3800737,None,219.1173175,219.2302185,219.5844871,219.5287931,219.5288945,219.5844871,219.5844871,219.5844871,222.251157,500,1,[2.7182181000243872],[2.7182314000092447],868958,1,2024-11-14_20h56.52.259,intentional binding exp,2024.1.5,None,2024-11-14 20h57.07.555199 +0530
0.4,1000,exp,2,11,35,10,222.2637637,,222.2524757,222.2637637,223.2627062,223.2627062,223.2792271,224.1151361,space,0.8483623,None,224.1165551,224.5316787,224.899015,224.8292123,224.8293253,224.899015,224.899015,224.899015,227.0240394,200,1,[2.189688199898228],[2.189728100085631],868958,1,2024-11-14_20h56.52.259,intentional binding exp,2024.1.5,None,2024-11-14 20h57.07.555199 +0530
0.4,1000,exp,3,0,36,10,227.0446905,,227.0258189,227.0446905,228.0280136,228.0280136,228.0446264,228.780109,space,0.7398265,None,228.7814631,229.1942938,229.5392815,229.4988353,229.4988994,229.5392815,229.5392815,229.5392815,232.2693712,300,1,[2.766997099854052],[2.7670120999682695],868958,1,2024-11-14_20h56.52.259,intentional binding exp,2024.1.5,None,2024-11-14 20h57.07.555199 +0530
0.1,1000,exp,3,1,37,9,232.2913173,,232.2729065,232.2913173,233.2769258,233.2769258,233.2935677,233.7280831,space,0.448875,None,233.7289443,233.8426465,234.164985,234.1388475,234.1388909,234.164985,234.164985,234.164985,236.9242295,440,1,[2.782605799846351],[2.7826229999773204],868958,1,2024-11-14_20h56.52.259,intentional binding exp,2024.1.5,None,2024-11-14 20h57.07.555199 +0530
0.1,400,unexp,3,2,38,0,236.9424853,,236.9260172,236.9424853,237.9255412,237.9255412,237.9422686,238.0282758,space,0.0906896,None,238.0298759,238.1424203,238.4815857,238.4389206,238.4389944,238.4815857,238.4815857,238.4815857,241.5385641,200,1,[3.0936054000630975],[3.0936799000483006],868958,1,2024-11-14_20h56.52.259,intentional binding exp,2024.1.5,None,2024-11-14 20h57.07.555199 +0530
0.4,1000,exp,3,3,39,4,241.5543444,,241.5429823,241.5543444,242.5437134,242.5437134,242.5603683,242.8266827,space,0.2777788,None,242.8276711,243.2408069,243.5750943,243.5384445,243.538504,243.5750943,243.5750943,243.5750943,245.8213403,350,1,[2.2795859000179917],[2.279603200033307],868958,1,2024-11-14_20h56.52.259,intentional binding exp,2024.1.5,None,2024-11-14 20h57.07.555199 +0530
0.7,1000,exp,3,4,40,5,245.840142,,245.8230519,245.840142,246.8233416,246.8233416,246.8400066,247.6247919,space,0.7874704,None,247.6256919,248.3409086,248.6943532,248.6433574,248.6434629,248.6943532,248.6943532,248.6943532,255.5361212,450,1,[6.887968100141734],[6.887988000176847],868958,1,2024-11-14_20h56.52.259,intentional binding exp,2024.1.5,None,2024-11-14 20h57.07.555199 +0530
0.7,400,unexp,3,5,41,2,255.5546991,,255.5385504,255.5546991,256.538411,256.538411,256.5552916,256.8224493,space,0.2727331,None,256.8232811,257.5227431,257.8720342,257.8190806,257.8191751,257.8720342,257.8720342,257.8720342,261.8114534,150,1,[3.987607799936086],[3.9876493997871876],868958,1,2024-11-14_20h56.52.259,intentional binding exp,2024.1.5,None,2024-11-14 20h57.07.555199 +0530
0.7,1000,exp,3,6,42,11,261.8343404,,261.8148997,261.8343404,262.8197107,262.8197107,262.83659,263.1726524,space,0.3432727,None,263.1740221,263.8870015,264.2398398,264.1894055,264.1894948,264.2398398,264.2398398,264.2398398,268.6058236,505,1,[4.411747599951923],[4.411769999889657],868958,1,2024-11-14_20h56.52.259,intentional binding exp,2024.1.5,None,2024-11-14 20h57.07.555199 +0530
0.4,1000,exp,3,7,43,7,268.6328753,,268.6079133,268.6328753,269.6177286,269.6177286,269.634866,270.1377093,space,0.5096544,None,270.1390944,270.551566,270.8870991,270.8486221,270.8487057,270.8870991,270.8870991,270.8870991,273.1637395,330,1,[2.309402200160548],[2.309433300048113],868958,1,2024-11-14_20h56.52.259,intentional binding exp,2024.1.5,None,2024-11-14 20h57.07.555199 +0530
0.1,1000,exp,3,8,44,3,273.1818305,,273.1680902,273.1818305,274.1669424,274.1669424,274.1839764,274.9366923,space,0.7664443,None,274.9381729,275.0502311,275.4026997,275.3491984,275.3493441,275.4026997,275.4026997,275.4026997,279.4052272,300,1,[4.050578699912876],[4.050602099858224],868958,1,2024-11-14_20h56.52.259,intentional binding exp,2024.1.5,None,2024-11-14 20h57.07.555199 +0530
0.4,400,unexp,3,9,45,1,279.4201987,,279.4081369,279.4201987,280.415581,280.415581,280.4322589,280.8703426,space,0.4423582,None,280.8724137,281.2829018,281.6137492,281.5784838,281.5785431,281.6137492,281.6137492,281.6137492,284.8631922,200,1,[3.281534899957478],[3.281557000009343],868958,1,2024-11-14_20h56.52.259,intentional binding exp,2024.1.5,None,2024-11-14 20h57.07.555199 +0530
0.1,1000,exp,3,10,46,6,284.881192,,284.8655385,284.881192,285.864377,285.864377,285.8808733,286.2002468,space,0.3286393,None,286.2016312,286.3150823,,286.618603,286.6186665,286.6599611,286.6599611,286.6599611,289.0722935,350,1,[2.450264200102538],[2.450286400038749],868958,1,2024-11-14_20h56.52.259,intentional binding exp,2024.1.5,None,2024-11-14 20h57.07.555199 +0530
0.7,1000,exp,3,11,47,8,289.0946486,,289.0762041,289.0946486,290.0829993,290.0829993,290.1001729,290.402081,space,0.3142098,None,290.4041809,291.113943,291.4579492,291.4188741,291.4189503,291.4579492,291.4579492,291.4579492,295.7851171,450,1,[4.363408100092784],[4.363423200091347],868958,1,2024-11-14_20h56.52.259,intentional binding exp,2024.1.5,None,2024-11-14 20h57.07.555199 +0530
0.7,1000,exp,4,0,48,5,295.8094336,,295.7866304,295.8094336,296.7955036,296.7955036,296.8121109,297.148034,space,0.3416533,None,297.1495526,297.8618412,298.2029208,298.1585572,298.1586419,298.2029208,298.2029208,298.2029208,299.9577297,550,1,[1.795410400023684],[1.7954293000511825],868958,1,2024-11-14_20h56.52.259,intentional binding exp,2024.1.5,None,2024-11-14 20h57.07.555199 +0530
0.4,1000,exp,4,1,49,7,299.9776268,,299.9595431,299.9776268,300.9611849,300.9611849,300.9776988,301.3491732,space,0.3751261,None,301.3512263,301.7607815,302.1191925,302.058936,302.0590075,302.1191925,302.1191925,302.1191925,307.7189531,350,1,[5.655473300023004],[5.655524899950251],868958,1,2024-11-14_20h56.52.259,intentional binding exp,2024.1.5,None,2024-11-14 20h57.07.555199 +0530
0.7,1000,exp,4,2,50,11,307.7399559,,307.7224093,307.7399559,308.7256451,308.7256451,308.7421499,309.1127008,space,0.368554,None,309.1140462,309.8254145,310.1689562,310.129292,310.129356,310.1689562,310.1689562,310.1689562,316.2458782,400,1,[6.113393799867481],[6.113406799966469],868958,1,2024-11-14_20h56.52.259,intentional binding exp,2024.1.5,None,2024-11-14 20h57.07.555199 +0530
0.7,1000,exp,4,3,51,8,316.2587079,,316.2471834,316.2587079,317.2587414,317.2587414,317.2737138,317.8941466,space,0.616969,None,317.8954714,318.6075841,318.9696363,318.9095181,318.9096243,318.9696363,318.9696363,318.9696363,321.2372733,200,1,[2.3229829999618232],[2.3229984999634326],868958,1,2024-11-14_20h56.52.259,intentional binding exp,2024.1.5,None,2024-11-14 20h57.07.555199 +0530
0.1,1000,exp,4,4,52,3,321.2558093,,321.2391072,321.2558093,322.2389567,322.2389567,322.2557437,322.5424402,space,0.3009093,None,322.5443475,322.6559826,323.0083272,322.9590885,322.9591907,323.0083272,323.0083272,323.0083272,326.955582,400,1,[3.9913496000226587],[3.9913721000775695],868958,1,2024-11-14_20h56.52.259,intentional binding exp,2024.1.5,None,2024-11-14 20h57.07.555199 +0530
0.1,1000,exp,4,5,53,6,326.9711128,,326.9576699,326.9711128,327.9711346,327.9711346,327.9711346,328.5085163,space,0.5179646,None,328.5099491,328.6208755,328.9595609,328.9184128,328.9184772,328.9595609,328.9595609,328.9595609,330.7187747,300,1,[1.7970152001362294],[1.7970315001439303],868958,1,2024-11-14_20h56.52.259,intentional binding exp,2024.1.5,None,2024-11-14 20h57.07.555199 +0530
0.7,400,unexp,4,6,54,2,330.7366466,,330.7203557,330.7366466,331.7200363,331.7200363,331.7369974,332.1225804,space,0.399297,None,332.1242223,332.8363722,333.1977649,333.1395799,333.1397057,333.1977649,333.1977649,333.1977649,338.4858602,450,1,[5.341427699895576],[5.341451199958101],868958,1,2024-11-14_20h56.52.259,intentional binding exp,2024.1.5,None,2024-11-14 20h57.07.555199 +0530
0.1,1000,exp,4,7,55,9,338.5018423,,338.4882509,338.5018423,339.5016581,339.5016581,339.5016581,339.8213593,space,0.3153826,None,339.8227246,339.9355166,340.2879849,340.2395134,340.2395924,340.2879849,340.2879849,340.2879849,343.448963,550,1,[3.2052568001672626],[3.205278299981728],868958,1,2024-11-14_20h56.52.259,intentional binding exp,2024.1.5,None,2024-11-14 20h57.07.555199 +0530
0.4,1000,exp,4,8,56,4,343.4670047,,343.4507882,343.4670047,344.4504686,344.4504686,344.4670242,344.8373219,space,0.3748985,None,344.8391288,345.250757,345.5987144,345.5493844,345.5494788,345.5987144,345.5987144,345.5987144,347.6983042,100,1,[2.1450058000627905],[2.1450203000567853],868958,1,2024-11-14_20h56.52.259,intentional binding exp,2024.1.5,None,2024-11-14 20h57.07.555199 +0530
0.4,400,unexp,4,9,57,1,347.7158947,,347.6996606,347.7158947,348.6995708,348.6995708,348.7160688,349.2518711,space,0.5496746,None,349.2531673,349.6659167,350.0287732,349.9706063,349.9707923,350.0287732,350.0287732,350.0287732,354.5060923,200,1,[4.52263700007461],[4.522657100111246],868958,1,2024-11-14_20h56.52.259,intentional binding exp,2024.1.5,None,2024-11-14 20h57.07.555199 +0530
0.1,400,unexp,4,10,58,0,354.5291347,,354.5097766,354.5291347,355.5145151,355.5145151,355.5312444,358.3516282,space,2.8181681,None,358.3532078,358.4638594,358.8162095,358.7607831,358.7608762,358.8162095,358.8162095,358.8162095,362.2329734,200,1,[3.467222300125286],[3.4672521001193672],868958,1,2024-11-14_20h56.52.259,intentional binding exp,2024.1.5,None,2024-11-14 20h57.07.555199 +0530
0.4,1000,exp,4,11,59,10,362.2489288,,362.2359327,362.2489288,363.2503973,363.2503973,363.2781358,363.5705527,space,0.3162778,None,363.5736794,363.9801941,364.3384281,364.2790614,364.2791567,364.3384281,364.3384281,364.3384281,366.5251236,350,1,[2.2413808000274003],[2.241401599952951],868958,1,2024-11-14_20h56.52.259,intentional binding exp,2024.1.5,None,2024-11-14 20h57.07.555199 +0530
0.7,400,unexp,5,0,60,2,366.5454118,,366.5272952,366.5454118,367.5309492,367.5309492,367.5472684,369.3151736,space,1.7816246,None,369.3167419,370.0287674,370.3864597,370.3288861,370.3289889,370.3864597,370.3864597,370.3864597,373.4399336,450,1,[3.1063744998537004],[3.106396900024265],868958,1,2024-11-14_20h56.52.259,intentional binding exp,2024.1.5,None,2024-11-14 20h57.07.555199 +0530
0.4,1000,exp,5,1,61,4,373.4605332,,373.4428035,373.4605332,374.4433338,374.4433338,374.4597753,374.945567,space,0.4899703,None,374.9468909,375.360165,375.7016667,375.6589899,375.6590621,375.7016667,375.7016667,375.7016667,378.0481727,500,1,[2.385376499965787],[2.3853990000206977],868958,1,2024-11-14_20h56.52.259,intentional binding exp,2024.1.5,None,2024-11-14 20h57.07.555199 +0530
0.7,1000,exp,5,2,62,5,378.0631506,,378.0503144,378.0631506,379.058989,379.058989,379.0756672,379.3781995,space,0.3149385,None,379.3795907,380.0920448,380.4323713,380.389,380.3890677,380.4323713,380.4323713,380.4323713,384.8569797,220,1,[4.463977399980649],[4.464002300053835],868958,1,2024-11-14_20h56.52.259,intentional binding exp,2024.1.5,None,2024-11-14 20h57.07.555199 +0530
0.7,1000,exp,5,3,63,11,384.8745102,,384.8596443,384.8745102,385.8738016,385.8738016,385.8738016,386.2264145,space,0.3382245,None,386.2277173,386.9403764,387.278629,387.2388929,387.2389575,387.278629,387.278629,387.278629,389.6711669,400,1,[2.4288278999738395],[2.4288463999982923],868958,1,2024-11-14_20h56.52.259,intentional binding exp,2024.1.5,None,2024-11-14 20h57.07.555199 +0530
0.1,1000,exp,5,4,64,6,389.6892118,,389.672449,389.6892118,390.6728563,390.6728563,390.6896164,391.0251448,space,0.3468568,None,391.0265341,391.1392681,391.4969716,391.4399679,391.440079,391.4969716,391.4969716,391.4969716,394.6487344,300,1,[3.203363199951127],[3.203383799875155],868958,1,2024-11-14_20h56.52.259,intentional binding exp,2024.1.5,None,2024-11-14 20h57.07.555199 +0530
0.7,1000,exp,5,5,65,8,394.6694962,,394.6522036,394.6694962,395.6557218,395.6557218,395.6719522,396.3941569,space,0.7202522,None,396.3956872,397.1047913,397.4524595,397.4089576,397.4090333,397.4524595,397.4524595,397.4524595,399.6602428,200,1,[2.2477178999688476],[2.2477326998487115],868958,1,2024-11-14_20h56.52.259,intentional binding exp,2024.1.5,None,2024-11-14 20h57.07.555199 +0530
0.1,400,unexp,5,6,66,0,399.684896,,399.6614701,399.684896,400.6705916,400.6705916,400.6870552,401.4226651,space,0.7390621,None,401.4240013,401.5367792,401.8819565,401.839004,401.8390688,401.8819565,401.8819565,401.8819565,404.0742131,100,1,[2.2317699000705034],[2.231788500212133],868958,1,2024-11-14_20h56.52.259,intentional binding exp,2024.1.5,None,2024-11-14 20h57.07.555199 +0530
0.1,1000,exp,5,7,67,3,404.0875905,,404.0759989,404.0875905,405.0873132,405.0873132,405.0873132,406.8771444,space,1.7835328,None,406.8817798,406.9855327,407.3287607,407.2893064,407.2893906,407.3287607,407.3287607,407.3287607,410.7278878,200,1,[3.4349410000722855],[3.434966100146994],868958,1,2024-11-14_20h56.52.259,intentional binding exp,2024.1.5,None,2024-11-14 20h57.07.555199 +0530
0.4,1000,exp,5,8,68,10,410.7422791,,410.7321851,410.7422791,411.7343671,411.7343671,411.7510941,412.2705991,space,0.5305976,None,412.2719503,412.6854676,413.0426258,412.9900838,412.9901756,413.0426258,413.0426258,413.0426258,417.4053901,300,1,[4.410215999931097],[4.410249900072813],868958,1,2024-11-14_20h56.52.259,intentional binding exp,2024.1.5,None,2024-11-14 20h57.07.555199 +0530
0.4,1000,exp,5,9,69,7,417.4184669,,417.4070228,417.4184669,418.4163243,418.4163243,418.4326627,418.9375494,space,0.5071073,None,418.9388801,419.3493533,419.6869036,419.6487054,419.6487729,419.6869036,419.6869036,419.6869036,421.9239973,400,1,[2.2714003999717534],[2.271430999971926],868958,1,2024-11-14_20h56.52.259,intentional binding exp,2024.1.5,None,2024-11-14 20h57.07.555199 +0530
0.1,1000,exp,5,10,70,9,421.9387023,,421.9280576,421.9387023,422.9318662,422.9318662,422.948441,423.2678132,space,0.3267029,None,423.2690754,423.3818611,423.7211897,423.6791484,423.6792206,423.7211897,423.7211897,423.7211897,426.6000172,300,1,[2.9170832000672817],[2.9171023000963032],868958,1,2024-11-14_20h56.52.259,intentional binding exp,2024.1.5,None,2024-11-14 20h57.07.555199 +0530
0.4,400,unexp,5,11,71,1,426.6145594,,426.602069,426.6145594,427.6139062,427.6139062,427.6139062,428.2344548,space,0.6162654,None,428.2359941,428.6473346,428.993558,428.949456,428.9495271,428.993558,428.993558,428.993558,431.6806607,350,1,[2.727489700075239],[2.7275086001027375],868958,1,2024-11-14_20h56.52.259,intentional binding exp,2024.1.5,None,2024-11-14 20h57.07.555199 +0530
0.1,1000,exp,6,0,72,3,431.695948,,431.6826099,431.695948,432.6972989,432.6972989,432.6972989,433.2844136,space,0.5756323,None,433.2863446,433.39753,,433.6992516,433.6993313,433.7472104,433.7472104,433.7472104,436.6460598,400,1,[2.9429864999838173],[2.943001699866727],868958,1,2024-11-14_20h56.52.259,intentional binding exp,2024.1.5,None,2024-11-14 20h57.07.555199 +0530
0.7,400,unexp,6,1,73,2,436.6614327,,436.6475332,436.6614327,437.6617759,437.6617759,437.6617759,437.982654,space,0.3030682,None,437.9840431,438.6948465,439.0407774,438.9990998,438.9991858,439.0407774,439.0407774,439.0407774,442.0498385,500,1,[3.047377800103277],[3.0473971001338214],868958,1,2024-11-14_20h56.52.259,intentional binding exp,2024.1.5,None,2024-11-14 20h57.07.555199 +0530
0.1,400,unexp,6,2,74,0,442.0748023,,442.0519589,442.0748023,443.0616793,443.0616793,443.0778303,443.3842946,space,0.3014926,None,443.3867427,443.4940957,443.8439448,443.7993244,443.7994048,443.8439448,443.8439448,443.8439448,446.4004729,300,1,[2.5968565000221133],[2.5968809998594224],868958,1,2024-11-14_20h56.52.259,intentional binding exp,2024.1.5,None,2024-11-14 20h57.07.555199 +0530
0.7,1000,exp,6,3,75,8,446.4147215,,446.4027559,446.4147215,447.4092445,447.4092445,447.4259876,447.7269383,space,0.3048617,None,447.7277924,448.4272946,,448.7288374,448.7289022,448.7664377,448.7664377,448.7664377,453.0579991,500,1,[4.325184600194916],[4.325225800042972],868958,1,2024-11-14_20h56.52.259,intentional binding exp,2024.1.5,None,2024-11-14 20h57.07.555199 +0530
0.7,1000,exp,6,4,76,5,453.0755706,,453.0601741,453.0755706,454.0747143,454.0747143,454.0747143,454.5109158,space,0.4276203,None,454.512425,455.2246517,455.5816574,455.5293422,455.5294132,455.5816574,455.5816574,455.5816574,458.0273022,300,1,[2.4940760999452323],[2.4941112000960857],868958,1,2024-11-14_20h56.52.259,intentional binding exp,2024.1.5,None,2024-11-14 20h57.07.555199 +0530
0.4,400,unexp,6,5,77,1,458.0413223,,458.0296577,458.0413223,459.0400641,459.0400641,459.0566137,459.3587474,space,0.3049338,None,459.3601023,459.7729196,460.1082397,460.0693756,460.0694495,460.1082397,460.1082397,460.1082397,462.5915547,200,1,[2.5188737001735717],[2.518889900064096],868958,1,2024-11-14_20h56.52.259,intentional binding exp,2024.1.5,None,2024-11-14 20h57.07.555199 +0530
0.4,1000,exp,6,6,78,10,462.605259,,462.5929663,462.605259,463.6051129,463.6051129,463.6051129,464.2962873,space,0.6816965,None,464.2991474,464.7073322,465.0787515,465.0102811,465.0103901,465.0787515,465.0787515,465.0787515,467.6443294,300,1,[2.6284946999512613],[2.6285077000502497],868958,1,2024-11-14_20h56.52.259,intentional binding exp,2024.1.5,None,2024-11-14 20h57.07.555199 +0530
0.1,1000,exp,6,7,79,6,467.6686143,,467.6460008,467.6686143,468.6552587,468.6552587,468.6722838,469.3891744,space,0.7257329,None,469.3901999,469.5040678,469.8304498,469.7997984,469.7998495,469.8304498,469.8304498,469.8304498,473.5820468,200,1,[3.7789968999568373],[3.7790382001549006],868958,1,2024-11-14_20h56.52.259,intentional binding exp,2024.1.5,None,2024-11-14 20h57.07.555199 +0530
0.1,1000,exp,6,8,80,9,473.5971241,,473.5853786,473.5971241,474.5869833,474.5869833,474.6024825,475.1394025,space,0.5432962,None,475.1409222,475.2535133,475.5977013,475.549826,475.5499294,475.5977013,475.5977013,475.5977013,479.3760173,300,1,[3.8217782999854535],[3.821793300099671],868958,1,2024-11-14_20h56.52.259,intentional binding exp,2024.1.5,None,2024-11-14 20h57.07.555199 +0530
0.7,1000,exp,6,9,81,11,479.399187,,479.3779109,479.399187,480.3847542,480.3847542,480.4019033,480.8707232,space,0.4831125,None,480.8720808,481.5849952,481.9260022,481.8889648,481.889029,481.9260022,481.9260022,481.9260022,483.5352373,500,1,[1.6428867999929935],[1.6429065999109298],868958,1,2024-11-14_20h56.52.259,intentional binding exp,2024.1.5,None,2024-11-14 20h57.07.555199 +0530
0.4,1000,exp,6,10,82,4,483.5504981,,483.5374245,483.5504981,484.5508667,484.5508667,484.5508667,485.2196298,space,0.6544899,None,485.2210067,485.6333644,485.9794517,485.9347838,485.9348642,485.9794517,485.9794517,485.9794517,488.8988608,600,1,[2.960100800031796],[2.960119799943641],868958,1,2024-11-14_20h56.52.259,intentional binding exp,2024.1.5,None,2024-11-14 20h57.07.555199 +0530
0.4,1000,exp,6,11,83,7,488.9157557,,488.90101,488.9157557,489.9158955,489.9158955,489.9158955,490.3853049,space,0.4564473,None,490.3866454,490.7986949,491.1523539,491.0997353,491.0998296,491.1523539,491.1523539,491.1523539,493.5448232,500,1,[2.4385151001624763],[2.438564000185579],868958,1,2024-11-14_20h56.52.259,intentional binding exp,2024.1.5,None,2024-11-14 20h57.07.555199 +0530
0.7,1000,exp,7,0,84,8,493.5586987,,493.5471681,493.5586987,494.5484554,494.5484554,494.565106,495.1505353,space,0.5909967,None,495.1518883,495.8643909,496.2082662,496.1690076,496.1690729,496.2082662,496.2082662,496.2082662,498.9376601,700,1,[2.765145899960771],[2.7651718999259174],868958,1,2024-11-14_20h56.52.259,intentional binding exp,2024.1.5,None,2024-11-14 20h57.07.555199 +0530
0.4,400,unexp,7,1,85,1,498.9519795,,498.942252,498.9519795,499.9490339,499.9490339,499.9657677,500.9518469,space,0.9911527,None,500.9538887,501.3668322,501.7083612,501.6692679,501.6693266,501.7083612,501.7083612,501.7083612,505.7540111,500,1,[4.081628199899569],[4.081642899895087],868958,1,2024-11-14_20h56.52.259,intentional binding exp,2024.1.5,None,2024-11-14 20h57.07.555199 +0530
0.1,1000,exp,7,2,86,3,505.7763636,,505.758076,505.7763636,506.7621634,506.7621634,506.7787557,507.1313768,space,0.3592657,None,507.132802,507.2452485,507.5901709,507.5491603,507.5492234,507.5901709,507.5901709,507.5901709,510.5074021,600,1,[2.954674799926579],[2.9546979998704046],868958,1,2024-11-14_20h56.52.259,intentional binding exp,2024.1.5,None,2024-11-14 20h57.07.555199 +0530
0.4,1000,exp,7,3,87,10,510.5276442,,510.5099457,510.5276442,511.5107528,511.5107528,511.5275425,511.7634998,space,0.2437117,None,511.7650635,512.1801017,512.5547528,512.4800253,512.4801409,512.5547528,512.5547528,512.5547528,515.6264859,100,1,[3.141242800047621],[3.1412607000675052],868958,1,2024-11-14_20h56.52.259,intentional binding exp,2024.1.5,None,2024-11-14 20h57.07.555199 +0530
0.4,1000,exp,7,4,88,7,515.6427191,,515.6283536,515.6427191,516.6255781,516.6255781,516.6423483,517.0274329,space,0.3935187,None,517.0282904,517.4434168,517.7953053,517.744576,517.7446267,517.7953053,517.7953053,517.7953053,519.6317964,200,1,[1.8843169000465423],[1.8843344000633806],868958,1,2024-11-14_20h56.52.259,intentional binding exp,2024.1.5,None,2024-11-14 20h57.07.555199 +0530
0.7,1000,exp,7,5,89,5,519.6566111,,519.6338271,519.6566111,520.6420324,520.6420324,520.6585301,522.227838,space,1.5833808,None,522.22938,522.9418069,523.280608,523.2392297,523.239302,523.280608,523.280608,523.280608,528.1075247,300,1,[4.864291900070384],[4.864314999897033],868958,1,2024-11-14_20h56.52.259,intentional binding exp,2024.1.5,None,2024-11-14 20h57.07.555199 +0530
0.1,1000,exp,7,6,90,9,528.1235482,,528.109611,528.1235482,529.1232497,529.1232497,529.1232497,529.5605104,space,0.4188481,None,529.5619401,529.67295,530.0183203,529.9699853,529.9701526,530.0183203,530.0183203,530.0183203,532.9772811,400,1,[3.003158900188282],[3.0031723000574857],868958,1,2024-11-14_20h56.52.259,intentional binding exp,2024.1.5,None,2024-11-14 20h57.07.555199 +0530
0.1,400,unexp,7,7,91,0,533.0032095,,532.9790476,533.0032095,533.9915277,533.9915277,534.0082238,534.48263,space,0.4670461,None,534.4863943,534.5903001,534.9446309,534.8894932,534.889586,534.9446309,534.9446309,534.9446309,537.1078535,500,1,[2.2134860998485237],[2.2135168998502195],868958,1,2024-11-14_20h56.52.259,intentional binding exp,2024.1.5,None,2024-11-14 20h57.07.555199 +0530
0.7,400,unexp,7,8,92,2,537.1233593,,537.109944,537.1233593,538.1214578,538.1214578,538.1377843,538.4577175,space,0.3265534,None,538.459277,539.1721396,539.5206889,539.4691711,539.4692665,539.5206889,539.5206889,539.5206889,542.2229064,400,1,[2.7485164999961853],[2.748541200067848],868958,1,2024-11-14_20h56.52.259,intentional binding exp,2024.1.5,None,2024-11-14 20h57.07.555199 +0530
0.7,1000,exp,7,9,93,11,542.2379478,,542.2251552,542.2379478,543.2370022,543.2370022,543.2370022,543.5398213,space,0.2947102,None,543.5415994,544.2544036,544.6340203,544.5597788,544.5598832,544.6340203,544.6340203,544.6340203,547.9903891,700,1,[3.4253000000026077],[3.4253236001823097],868958,1,2024-11-14_20h56.52.259,intentional binding exp,2024.1.5,None,2024-11-14 20h57.07.555199 +0530
0.4,1000,exp,7,10,94,4,548.0047759,,547.9925768,548.0047759,549.001866,549.001866,549.0187598,549.7379644,space,0.7329981,None,549.7393313,550.1515733,550.4878468,550.4487255,550.4487938,550.4878468,550.4878468,550.4878468,553.4519819,200,1,[2.9993284998927265],[2.999357499880716],868958,1,2024-11-14_20h56.52.259,intentional binding exp,2024.1.5,None,2024-11-14 20h57.07.555199 +0530
0.1,1000,exp,7,11,95,6,553.4688898,,553.4553054,553.4688898,554.4679075,554.4679075,554.4844988,554.9688754,space,0.4925484,None,554.9697741,555.0835784,555.4088772,555.3793926,555.3794535,555.4088772,555.4088772,555.4088772,559.2372824,400,1,[3.855156400008127],[3.8551741000264883],868958,1,2024-11-14_20h56.52.259,intentional binding exp,2024.1.5,None,2024-11-14 20h57.07.555199 +0530
0.7,400,unexp,8,0,96,2,559.2511455,,559.2391656,559.2511455,560.2508698,560.2508698,560.2508698,560.5379162,space,0.2729394,None,560.5398686,561.2516912,561.6140267,561.5499271,561.5501242,561.6140267,561.6140267,561.6140267,564.6178493,800,1,[3.062560100108385],[3.06257600011304],868958,1,2024-11-14_20h56.52.259,intentional binding exp,2024.1.5,None,2024-11-14 20h57.07.555199 +0530
0.1,1000,exp,8,1,97,9,564.6314995,,564.6195554,564.6314995,565.6315671,565.6315671,565.6315671,566.0001285,space,0.3546283,None,566.0012545,566.1141708,566.4693733,566.4192315,566.4193113,566.4693733,566.4693733,566.4693733,570.6120917,200,1,[4.188083400018513],[4.188106399960816],868958,1,2024-11-14_20h56.52.259,intentional binding exp,2024.1.5,None,2024-11-14 20h57.07.555199 +0530
0.1,400,unexp,8,2,98,0,570.63068,,570.6160047,570.63068,571.6310346,571.6310346,571.6310346,571.9836465,space,0.3351417,None,571.9850373,572.0971033,572.4384989,572.3993885,572.3994723,572.4384989,572.4384989,572.4384989,576.3507194,300,1,[3.9479362000711262],[3.947950700065121],868958,1,2024-11-14_20h56.52.259,intentional binding exp,2024.1.5,None,2024-11-14 20h57.07.555199 +0530
0.4,1000,exp,8,3,99,10,576.3772193,,576.352591,576.3772193,577.3619498,577.3619498,577.378701,577.6796065,space,0.311482,None,577.6804009,578.0950604,578.4391839,578.3995126,578.3995761,578.4391839,578.4391839,578.4391839,580.7073189,400,1,[2.304489200003445],[2.304517899872735],868958,1,2024-11-14_20h56.52.259,intentional binding exp,2024.1.5,None,2024-11-14 20h57.07.555199 +0530
0.7,1000,exp,8,4,100,5,580.7276169,,580.7093074,580.7276169,581.7105041,581.7105041,581.7281342,582.1977385,space,0.4797059,None,582.1995368,582.9110396,583.2554995,583.2097634,583.2098539,583.2554995,583.2554995,583.2554995,585.5909422,500,1,[2.376869299914688],[2.376906800083816],868958,1,2024-11-14_20h56.52.259,intentional binding exp,2024.1.5,None,2024-11-14 20h57.07.555199 +0530
0.7,1000,exp,8,5,101,8,585.6099526,,585.594021,585.6099526,586.5932343,586.5932343,586.6099555,587.062209,space,0.455717,None,587.063575,587.7762437,588.1222675,588.0795327,588.0795945,588.1222675,588.1222675,588.1222675,590.4033512,300,1,[2.3192230998538435],[2.319255899870768],868958,1,2024-11-14_20h56.52.259,intentional binding exp,2024.1.5,None,2024-11-14 20h57.07.555199 +0530
0.1,1000,exp,8,6,102,3,590.4227715,,590.4055505,590.4227715,591.4088732,591.4088732,591.4256115,593.0931517,space,1.6788028,None,593.0940598,593.2077282,593.5403374,593.5091829,593.5092275,593.5403374,593.5403374,593.5403374,595.926986,300,1,[2.4148613000288606],[2.4148872001096606],868958,1,2024-11-14_20h56.52.259,intentional binding exp,2024.1.5,None,2024-11-14 20h57.07.555199 +0530
0.4,400,unexp,8,7,103,1,595.9427004,,595.9305349,595.9427004,596.9405484,596.9405484,596.95724,597.3775566,space,0.419079,None,597.3789419,597.7927564,598.1433642,598.0900911,598.0902537,598.1433642,598.1433642,598.1433642,601.1569585,500,1,[3.06197729986161],[3.0620043999515474],868958,1,2024-11-14_20h56.52.259,intentional binding exp,2024.1.5,None,2024-11-14 20h57.07.555199 +0530
0.1,1000,exp,8,8,104,6,601.1725317,,601.1588602,601.1725317,602.1728659,602.1728659,602.1728659,602.5251944,space,0.3393517,None,602.5265383,602.6394368,602.9780105,602.9393472,602.9394103,602.9780105,602.9780105,602.9780105,605.7686268,200,1,[2.8258408999536186],[2.8258594998624176],868958,1,2024-11-14_20h56.52.259,intentional binding exp,2024.1.5,None,2024-11-14 20h57.07.555199 +0530
0.4,1000,exp,8,9,105,4,605.7882035,,605.7704196,605.7882035,606.7720617,606.7720617,606.7884131,607.3083168,space,0.5302766,None,607.309834,607.7216594,608.0660269,608.0195076,608.01958,608.0660269,608.0660269,608.0660269,610.6003908,300,1,[2.5772246001288295],[2.577244099928066],868958,1,2024-11-14_20h56.52.259,intentional binding exp,2024.1.5,None,2024-11-14 20h57.07.555199 +0530
0.4,1000,exp,8,10,106,7,610.6205269,,610.6023239,610.6205269,611.6037652,611.6037652,611.6207495,611.957132,space,0.3348299,None,611.958533,612.3709183,612.711769,612.669147,612.6692044,612.711769,612.711769,612.711769,615.2003188,200,1,[2.528007699875161],[2.52802349999547],868958,1,2024-11-14_20h56.52.259,intentional binding exp,2024.1.5,None,2024-11-14 20h57.07.555199 +0530
0.7,1000,exp,8,11,107,11,615.2192766,,615.2018347,615.2192766,616.2027504,616.2027504,616.2195052,616.7383985,space,0.5261532,None,616.7397579,617.4527547,617.7923958,617.7493849,617.7494809,617.7923958,617.7923958,617.7923958,621.7215402,100,1,[3.9684562999755144],[3.96847500000149],868958,1,2024-11-14_20h56.52.259,intentional binding exp,2024.1.5,None,2024-11-14 20h57.07.555199 +0530
0.7,1000,exp,9,0,108,11,621.7488712,,621.7244142,621.7488712,622.7356218,622.7356218,622.7522793,623.1051552,space,0.3623885,None,623.1069093,623.8179188,624.1679101,624.11981,624.1198915,624.1679101,624.1679101,624.1679101,626.942315,400,1,[2.8184695998206735],[2.818494899896905],868958,1,2024-11-14_20h56.52.259,intentional binding exp,2024.1.5,None,2024-11-14 20h57.07.555199 +0530
0.1,1000,exp,9,1,109,6,626.9569382,,626.9468659,626.9569382,627.9504191,627.9504191,627.9668696,628.2528149,space,0.2896569,None,628.2543539,628.3669677,628.7116703,628.6692078,628.6692825,628.7116703,628.7116703,628.7116703,631.2699237,200,1,[2.596442800015211],[2.596489599905908],868958,1,2024-11-14_20h56.52.259,intentional binding exp,2024.1.5,None,2024-11-14 20h57.07.555199 +0530
0.7,1000,exp,9,2,110,8,631.2853056,,631.2724761,631.2853056,632.2822401,632.2822401,632.2988254,634.3923098,space,2.0882761,None,634.3960784,635.0982949,635.4283038,635.3988717,635.3989105,635.4283038,635.4283038,635.4283038,639.5128872,400,1,[4.111377999885008],[4.1114004999399185],868958,1,2024-11-14_20h56.52.259,intentional binding exp,2024.1.5,None,2024-11-14 20h57.07.555199 +0530
0.7,1000,exp,9,3,111,5,639.5303875,,639.5151363,639.5303875,640.5137926,640.5137926,640.5305232,641.0335623,space,0.50981,None,641.0350587,641.7464946,642.1237909,642.0504351,642.0505443,642.1237909,642.1237909,642.1237909,644.2371263,300,1,[2.180794599931687],[2.180823399918154],868958,1,2024-11-14_20h56.52.259,intentional binding exp,2024.1.5,None,2024-11-14 20h57.07.555199 +0530
0.4,1000,exp,9,4,112,10,644.2534019,,644.2422186,644.2534019,645.2462526,645.2462526,645.262888,646.0638806,space,0.8113346,None,646.0648506,646.4806184,646.8379244,646.7803055,646.7804144,646.8379244,646.8379244,646.8379244,651.8094668,400,1,[5.02357740001753],[5.023599499836564],868958,1,2024-11-14_20h56.52.259,intentional binding exp,2024.1.5,None,2024-11-14 20h57.07.555199 +0530
0.7,400,unexp,9,5,113,2,651.8272156,,651.8120336,651.8272156,652.8270798,652.8270798,652.8270798,654.9874655,space,2.1396894,None,654.9914382,655.6935535,656.0509705,655.9951089,655.9952026,656.0509705,656.0509705,656.0509705,658.7931747,300,1,[2.7932777001988143],[2.7932997001335025],868958,1,2024-11-14_20h56.52.259,intentional binding exp,2024.1.5,None,2024-11-14 20h57.07.555199 +0530
0.1,1000,exp,9,6,114,3,658.8092753,,658.7952854,658.8092753,659.8087742,659.8087742,659.8087742,660.1951261,space,0.3747156,None,660.1964998,660.3089217,660.6536969,660.6090098,660.6090754,660.6536969,660.6536969,660.6536969,663.3205245,400,1,[2.7081184999551624],[2.708137499867007],868958,1,2024-11-14_20h56.52.259,intentional binding exp,2024.1.5,None,2024-11-14 20h57.07.555199 +0530
0.4,1000,exp,9,7,115,4,663.3415404,,663.3221456,663.3415404,664.3254148,664.3254148,664.341469,664.6612189,space,0.3283229,None,664.6628383,665.0746098,665.4211934,665.379641,665.3797132,665.4211934,665.4211934,665.4211934,669.2096609,600,1,[3.8263763999566436],[3.826393899973482],868958,1,2024-11-14_20h56.52.259,intentional binding exp,2024.1.5,None,2024-11-14 20h57.07.555199 +0530
0.4,1000,exp,9,8,116,7,669.2237708,,669.2116287,669.2237708,670.22312,670.22312,670.22312,670.5092734,space,0.2834454,None,670.5106924,670.922955,671.258427,671.2195839,671.2196498,671.258427,671.258427,671.258427,673.6171547,300,1,[2.3940018999855965],[2.3940258999355137],868958,1,2024-11-14_20h56.52.259,intentional binding exp,2024.1.5,None,2024-11-14 20h57.07.555199 +0530
0.1,400,unexp,9,9,117,0,673.6391115,,673.6194516,673.6391115,674.6223833,674.6223833,674.6390852,675.1747928,space,0.5426155,None,675.1761454,675.2888948,675.6285781,675.5891772,675.5892412,675.6285781,675.6285781,675.6285781,678.4163681,200,1,[2.8236631001345813],[2.8236827000509948],868958,1,2024-11-14_20h56.52.259,intentional binding exp,2024.1.5,None,2024-11-14 20h57.07.555199 +0530
0.1,1000,exp,9,10,118,9,678.437731,,678.4182972,678.437731,679.4217446,679.4217446,679.4379179,680.1075104,space,0.6773338,None,680.1090696,680.2211631,680.5630186,680.519785,680.5198561,680.5630186,680.5630186,680.5630186,684.2908262,300,1,[3.7674217999447137],[3.767455799970776],868958,1,2024-11-14_20h56.52.259,intentional binding exp,2024.1.5,None,2024-11-14 20h57.07.555199 +0530
0.4,400,unexp,9,11,119,1,684.3046042,,684.2929012,684.3046042,685.3030225,685.3030225,685.3195217,685.7387212,space,0.4246393,None,685.7400384,686.1527128,686.4875434,686.4494058,686.4494712,686.4875434,686.4875434,686.4875434,689.1128855,100,1,[2.6593803998548537],[2.6594006000086665],868958,1,2024-11-14_20h56.52.259,intentional binding exp,2024.1.5,None,2024-11-14 20h57.07.555199 +0530
0.7,1000,exp,10,0,120,8,689.1328894,,689.1156527,689.1328894,690.1184859,690.1184859,690.1351274,690.5558652,space,0.4185439,None,690.5571873,691.2682366,691.6278925,691.5696015,691.5696651,691.6278925,691.6278925,691.6278925,695.2363395,300,1,[3.6632167000789195],[3.6632372001186013],868958,1,2024-11-14_20h56.52.259,intentional binding exp,2024.1.5,None,2024-11-14 20h57.07.555199 +0530
0.4,1000,exp,10,1,121,10,695.2508498,,695.2384309,695.2508498,696.2505385,696.2505385,696.2505385,696.8359238,space,0.5728563,None,696.837247,697.2508928,697.5945996,697.5492775,697.5493423,697.5945996,697.5945996,697.5945996,701.8839766,500,1,[4.33135599992238],[4.33137740008533],868958,1,2024-11-14_20h56.52.259,intentional binding exp,2024.1.5,None,2024-11-14 20h57.07.555199 +0530
0.4,400,unexp,10,2,122,1,701.8987533,,701.8857969,701.8987533,702.8986785,702.8986785,702.8986785,703.6197238,space,0.7033109,None,703.621067,704.0317053,704.371422,704.3290235,704.329091,704.371422,704.371422,704.371422,707.0281879,200,1,[2.6953933001495898],[2.6954187001101673],868958,1,2024-11-14_20h56.52.259,intentional binding exp,2024.1.5,None,2024-11-14 20h57.07.555199 +0530
0.7,1000,exp,10,3,123,5,707.0427073,,707.0311985,707.0427073,708.0303658,708.0303658,708.0470946,708.5675864,space,0.5307276,None,708.5691474,709.2809885,709.6219853,709.5795752,709.5796485,709.6219853,709.6219853,709.6219853,715.2502799,600,1,[5.667210699990392],[5.667225900106132],868958,1,2024-11-14_20h56.52.259,intentional binding exp,2024.1.5,None,2024-11-14 20h57.07.555199 +0530
0.7,1000,exp,10,4,124,11,715.2636808,,715.2517012,715.2636808,716.2623719,716.2623719,716.2791469,717.7980263,space,1.5224915,None,717.7993279,718.5118557,718.8469273,718.8093067,718.8093712,718.8469273,718.8469273,718.8469273,722.2396095,500,1,[3.4270315000321716],[3.427051200065762],868958,1,2024-11-14_20h56.52.259,intentional binding exp,2024.1.5,None,2024-11-14 20h57.07.555199 +0530
0.4,1000,exp,10,5,125,7,722.2605735,,722.2416342,722.2605735,723.2441459,723.2441459,723.260562,723.8301677,space,0.5780641,None,723.8318626,724.2436408,724.5785009,724.539937,724.5400012,724.5785009,724.5785009,724.5785009,727.4169934,300,1,[2.87376520014368],[2.873784000054002],868958,1,2024-11-14_20h56.52.259,intentional binding exp,2024.1.5,None,2024-11-14 20h57.07.555199 +0530
0.4,1000,exp,10,6,126,4,727.4405789,,727.4189432,727.4405789,728.4261112,728.4261112,728.4427189,728.7458184,space,0.3007962,None,728.7473989,729.1593659,729.4984518,729.4592301,729.4593128,729.4984518,729.4984518,729.4984518,732.5900555,300,1,[3.127531100064516],[3.127549899974838],868958,1,2024-11-14_20h56.52.259,intentional binding exp,2024.1.5,None,2024-11-14 20h57.07.555199 +0530
0.1,400,unexp,10,7,127,0,732.6081165,,732.5918107,732.6081165,733.5915228,733.5915228,733.6084805,733.9091344,space,0.3083443,None,733.9099853,734.0241868,734.3699222,734.3255615,734.3256443,734.3699222,734.3699222,734.3699222,736.7572457,400,1,[2.4277869001962245],[2.4278044002130628],868958,1,2024-11-14_20h56.52.259,intentional binding exp,2024.1.5,None,2024-11-14 20h57.07.555199 +0530
0.1,1000,exp,10,8,128,6,736.7739386,,736.75905,736.7739386,737.7739809,737.7739809,737.7739809,738.9772467,space,1.1993895,None,738.9788075,739.0905504,739.4304719,739.3897172,739.3897975,739.4304719,739.4304719,739.4304719,742.4687497,200,1,[3.075383300194517],[3.0753998002037406],868958,1,2024-11-14_20h56.52.259,intentional binding exp,2024.1.5,None,2024-11-14 20h57.07.555199 +0530
0.7,400,unexp,10,9,129,2,742.4893201,,742.4707671,742.4893201,743.4725912,743.4725912,743.4890534,743.8903579,space,0.4109253,None,743.8916561,744.6062002,744.9536366,744.9098368,744.9099176,744.9536366,744.9536366,744.9536366,748.3204443,100,1,[3.4063277000095695],[3.4063520999625325],868958,1,2024-11-14_20h56.52.259,intentional binding exp,2024.1.5,None,2024-11-14 20h57.07.555199 +0530
0.1,1000,exp,10,10,130,3,748.3378913,,748.3223581,748.3378913,749.3215769,749.3215769,749.3381618,749.7061779,space,0.3828321,None,749.7071017,749.8213588,750.1638724,750.1192067,750.1193008,750.1638724,750.1638724,750.1638724,752.6912456,500,1,[2.5684754999820143],[2.5684909000992775],868958,1,2024-11-14_20h56.52.259,intentional binding exp,2024.1.5,None,2024-11-14 20h57.07.555199 +0530
0.1,1000,exp,10,11,131,9,752.7042858,,752.6926057,752.7042858,753.703372,753.703372,753.703372,754.5557403,space,0.8387026,None,754.5570451,754.6702105,755.0069752,754.9691518,754.9692156,755.0069752,755.0069752,755.0069752,757.5508306,400,1,[2.5780070000328124],[2.5780270998366177],868958,1,2024-11-14_20h56.52.259,intentional binding exp,2024.1.5,None,2024-11-14 20h57.07.555199 +0530
0.4,1000,exp,11,0,132,10,757.5692308,,757.5528186,757.5692308,758.5523396,758.5523396,758.5688519,759.4546322,space,0.8901352,None,759.4559525,759.8685731,760.2094526,760.1697609,760.169827,760.2094526,760.2094526,760.2094526,763.3816559,500,1,[3.208486200077459],[3.208515099948272],868958,1,2024-11-14_20h56.52.259,intentional binding exp,2024.1.5,None,2024-11-14 20h57.07.555199 +0530
0.7,1000,exp,11,1,133,11,763.4008619,,763.3833875,763.4008619,764.3876218,764.3876218,764.416578,764.8720135,space,0.4645948,None,764.8733587,765.5838775,765.9328621,765.8853715,765.8854546,765.9328621,765.9328621,765.9328621,768.5335926,700,1,[2.644316300051287],[2.644330100156367],868958,1,2024-11-14_20h56.52.259,intentional binding exp,2024.1.5,None,2024-11-14 20h57.07.555199 +0530
0.4,1000,exp,11,2,134,7,768.5495762,,768.5348898,768.5495762,769.5502853,769.5502853,769.5502853,770.2524842,space,0.6991175,None,770.2541002,770.6662591,771.0077757,770.9697691,770.9698318,771.0077757,771.0077757,771.0077757,773.9992165,400,1,[3.0259895001072437],[3.026013500057161],868958,1,2024-11-14_20h56.52.259,intentional binding exp,2024.1.5,None,2024-11-14 20h57.07.555199 +0530
0.7,1000,exp,11,3,135,8,774.0149345,,774.0013544,774.0149345,775.0153775,775.0153775,775.0153775,775.5682717,space,0.5413686,None,775.5697549,776.2816279,776.6225374,776.5793418,776.5794128,776.6225374,776.6225374,776.6225374,780.3058767,600,1,[3.72236659983173],[3.7223941998090595],868958,1,2024-11-14_20h56.52.259,intentional binding exp,2024.1.5,None,2024-11-14 20h57.07.555199 +0530
0.7,400,unexp,11,4,136,2,780.3230599,,780.3110248,780.3230599,781.313389,781.313389,781.3303575,781.6328711,space,0.3120686,None,781.6342348,782.346474,782.696175,782.6496241,782.6496824,782.696175,782.696175,782.696175,785.4813369,500,1,[2.8278948001097888],[2.827912600012496],868958,1,2024-11-14_20h56.52.259,intentional binding exp,2024.1.5,None,2024-11-14 20h57.07.555199 +0530
0.4,400,unexp,11,5,137,1,785.495859,,785.48312,785.495859,786.496705,786.496705,786.496705,787.3975661,space,0.8949282,None,787.3986249,787.8120881,788.1427376,788.1094386,788.109487,788.1427376,788.1427376,788.1427376,791.2127887,200,1,[3.100010900059715],[3.1000363999046385],868958,1,2024-11-14_20h56.52.259,intentional binding exp,2024.1.5,None,2024-11-14 20h57.07.555199 +0530
0.7,1000,exp,11,6,138,5,791.2288704,,791.2157053,791.2288704,792.2276567,792.2276567,792.244401,793.1121897,space,0.881864,None,793.1130449,793.8277347,794.1815305,794.129659,794.1297384,794.1815305,794.1815305,794.1815305,797.0613355,300,1,[2.927358099957928],[2.927382200025022],868958,1,2024-11-14_20h56.52.259,intentional binding exp,2024.1.5,None,2024-11-14 20h57.07.555199 +0530
0.1,1000,exp,11,7,139,6,797.0772218,,797.0635942,797.0772218,798.0765933,798.0765933,798.0765933,798.9794891,space,0.8951257,None,798.9810262,799.0927089,799.4367617,799.3893757,799.389449,799.4367617,799.4367617,799.4367617,801.7581516,500,1,[2.3652041000314057],[2.3652204000391066],868958,1,2024-11-14_20h56.52.259,intentional binding exp,2024.1.5,None,2024-11-14 20h57.07.555199 +0530
0.1,400,unexp,11,8,140,0,801.7750815,,801.760163,801.7750815,802.7589387,802.7589387,802.775391,803.2289017,space,0.4567476,None,803.2304631,803.3422664,803.6888092,803.6395952,803.6396616,803.6888092,803.6888092,803.6888092,805.9867419,200,1,[2.3428191000130028],[2.342843199847266],868958,1,2024-11-14_20h56.52.259,intentional binding exp,2024.1.5,None,2024-11-14 20h57.07.555199 +0530
0.1,1000,exp,11,9,141,9,806.0075185,,805.9886832,806.0075185,806.9928911,806.9928911,807.009346,807.528024,space,0.5226113,None,807.5297819,807.6413833,807.9832339,807.9395954,807.9396783,807.9832339,807.9832339,807.9832339,810.8273913,100,1,[2.883794100023806],[2.8838155001867563],868958,1,2024-11-14_20h56.52.259,intentional binding exp,2024.1.5,None,2024-11-14 20h57.07.555199 +0530
0.1,1000,exp,11,10,142,3,810.8417085,,810.8293859,810.8417085,811.8399238,811.8399238,811.8562101,812.2423603,space,0.3968153,None,812.2437342,812.3563981,812.7031116,812.6598089,812.6598907,812.7031116,812.7031116,812.7031116,815.2186442,100,1,[2.554564299993217],[2.5545900999568403],868958,1,2024-11-14_20h56.52.259,intentional binding exp,2024.1.5,None,2024-11-14 20h57.07.555199 +0530
0.4,1000,exp,11,11,143,4,815.2389275,,815.2209941,815.2389275,816.2247096,816.2247096,816.2417516,816.5280262,space,0.2913371,None,816.5305384,816.9394477,817.2970265,817.2398719,817.2399628,817.2970265,817.2970265,817.2970265,819.0430104,200,1,[1.798396699829027],[1.7984179998748004],868958,1,2024-11-14_20h56.52.259,intentional binding exp,2024.1.5,None,2024-11-14 20h57.07.555199 +0530
0.7,1000,exp,12,0,144,11,819.057544,,819.0451306,819.057544,820.0543591,820.0543591,820.0710086,820.4070679,space,0.3434363,None,820.408448,821.1205017,821.4604349,821.4194032,821.4194929,821.4604349,821.4604349,821.4604349,823.1115137,400,1,[1.688213299959898],[1.6882429998368025],868958,1,2024-11-14_20h56.52.259,intentional binding exp,2024.1.5,None,2024-11-14 20h57.07.555199 +0530
0.1,1000,exp,12,1,145,3,823.127951,,823.1163966,823.127951,824.1201569,824.1201569,824.1368377,825.2062221,space,1.081713,None,825.2075971,825.3199632,825.6651532,825.6196921,825.619756,825.6651532,825.6651532,825.6651532,827.4309429,500,1,[1.8077446001116186],[1.8077682999428362],868958,1,2024-11-14_20h56.52.259,intentional binding exp,2024.1.5,None,2024-11-14 20h57.07.555199 +0530
0.1,1000,exp,12,2,146,6,827.4529664,,827.4333404,827.4529664,828.4358122,828.4358122,828.4524627,828.7551663,space,0.3170135,None,828.7565076,828.8690377,829.2090412,829.1697791,829.169843,829.2090412,829.2090412,829.2090412,831.6072291,400,1,[2.433534099953249],[2.433563399827108],868958,1,2024-11-14_20h56.52.259,intentional binding exp,2024.1.5,None,2024-11-14 20h57.07.555199 +0530
0.1,1000,exp,12,3,147,9,831.6236614,,831.6106894,831.6236614,832.618493,832.618493,832.6350747,832.9383542,space,0.3075927,None,832.940528,833.0515097,833.3908361,833.3498502,833.3499284,833.3908361,833.3908361,833.3908361,836.2147548,600,1,[2.861384900053963],[2.8614082999993116],868958,1,2024-11-14_20h56.52.259,intentional binding exp,2024.1.5,None,2024-11-14 20h57.07.555199 +0530
0.7,1000,exp,12,4,148,5,836.2334451,,836.2163124,836.2334451,837.2177477,837.2177477,837.2342963,837.5032534,space,0.2726083,None,837.5048069,838.217285,838.5646147,838.5201863,838.5202844,838.5646147,838.5646147,838.5646147,841.6938109,700,1,[3.16988499998115],[3.1699069999158382],868958,1,2024-11-14_20h56.52.259,intentional binding exp,2024.1.5,None,2024-11-14 20h57.07.555199 +0530
0.4,1000,exp,12,5,149,4,841.7161435,,841.6960525,841.7161435,842.7133498,842.7133498,842.7328,843.0736281,space,0.3396713,None,843.0754582,843.4829009,843.8269552,843.7795973,843.7796773,843.8269552,843.8269552,843.8269552,846.1226032,100,1,[2.3387324998620898],[2.3387533999048173],868958,1,2024-11-14_20h56.52.259,intentional binding exp,2024.1.5,None,2024-11-14 20h57.07.555199 +0530
0.1,400,unexp,12,6,150,0,846.1369761,,846.1256481,846.1369761,847.1326511,847.1326511,847.1488659,847.5855153,space,0.442514,None,847.5871745,847.6985299,848.0495788,848.0001979,848.00028,848.0495788,848.0495788,848.0495788,850.3271288,100,1,[2.32299969997257],[2.3230252999346703],868958,1,2024-11-14_20h56.52.259,intentional binding exp,2024.1.5,None,2024-11-14 20h57.07.555199 +0530
0.4,1000,exp,12,7,151,7,850.3469325,,850.3291339,850.3469325,851.3322279,851.3322279,851.3481483,852.0009308,space,0.6650279,None,852.0027014,852.4137791,852.7388086,852.7094919,852.7095424,852.7388086,852.7388086,852.7388086,854.8352612,200,1,[2.122791999951005],[2.122814199887216],868958,1,2024-11-14_20h56.52.259,intentional binding exp,2024.1.5,None,2024-11-14 20h57.07.555199 +0530
0.4,400,unexp,12,8,152,1,854.8496255,,854.8373392,854.8496255,855.8462671,855.8462671,855.8629006,856.4341366,space,0.568386,None,856.435685,856.8456555,857.1940621,857.1497075,857.1497801,857.1940621,857.1940621,857.1940621,859.0460533,200,1,[1.8927976998966187],[1.8928119998890907],868958,1,2024-11-14_20h56.52.259,intentional binding exp,2024.1.5,None,2024-11-14 20h57.07.555199 +0530
0.7,400,unexp,12,9,153,2,859.0619988,,859.0473346,859.0619988,860.061502,860.061502,860.061502,860.4809391,space,0.4152348,None,860.4823046,861.1948212,861.5669122,861.5004573,861.5005736,861.5669122,861.5669122,861.5669122,864.334248,300,1,[2.8280386000405997],[2.8280575000680983],868958,1,2024-11-14_20h56.52.259,intentional binding exp,2024.1.5,None,2024-11-14 20h57.07.555199 +0530
0.7,1000,exp,12,10,154,8,864.3583458,,864.336241,864.3583458,865.3438923,865.3438923,865.3606489,865.730415,space,0.3718489,None,865.7319166,866.4466592,866.8107289,866.7503426,866.7504465,866.8107289,866.8107289,866.8107289,868.4992759,400,1,[1.7414573000278324],[1.7414764999412],868958,1,2024-11-14_20h56.52.259,intentional binding exp,2024.1.5,None,2024-11-14 20h57.07.555199 +0530
0.4,1000,exp,12,11,155,10,868.5237644,,868.5015234,868.5237644,869.5094266,869.5094266,869.5257451,871.1835411,space,1.6526431,None,871.1853875,871.5928646,871.9361595,871.8895191,871.8896001,871.9361595,871.9361595,871.9361595,874.3741187,500,1,[2.480253200046718],[2.4802753999829292],868958,1,2024-11-14_20h56.52.259,intentional binding exp,2024.1.5,None,2024-11-14 20h57.07.555199 +0530
0.1,1000,exp,13,0,156,3,874.3913221,,874.3763022,874.3913221,875.3912151,875.3912151,875.3912151,877.2615967,space,1.851483,None,877.2629291,877.374259,877.7279656,877.6767505,877.6768954,877.7279656,877.7279656,877.7279656,880.5825854,200,1,[2.8990252998191863],[2.899043999845162],868958,1,2024-11-14_20h56.52.259,intentional binding exp,2024.1.5,None,2024-11-14 20h57.07.555199 +0530
0.7,1000,exp,13,1,157,8,880.6043079,,880.5859174,880.6043079,881.5896886,881.5896886,881.6063297,881.8924162,space,0.2956046,None,881.8937593,882.6063495,882.9500698,882.9099599,882.9100384,882.9500698,882.9500698,882.9500698,885.2852945,400,1,[2.3703852999024093],[2.370583700016141],868958,1,2024-11-14_20h56.52.259,intentional binding exp,2024.1.5,None,2024-11-14 20h57.07.555199 +0530
0.4,1000,exp,13,2,158,4,885.2985774,,885.2879161,885.2985774,886.2899654,886.2899654,886.3064846,887.2624373,space,0.9518577,None,887.2643253,887.6723534,888.0112134,887.9700034,887.9700754,888.0112134,888.0112134,888.0112134,890.1956952,400,1,[2.222043399931863],[2.222061299951747],868958,1,2024-11-14_20h56.52.259,intentional binding exp,2024.1.5,None,2024-11-14 20h57.07.555199 +0530
0.7,400,unexp,13,3,159,2,890.2184111,,890.1983246,890.2184111,891.2046868,891.2046868,891.2218613,892.0050625,space,0.7842839,None,892.0060391,892.719924,893.0609276,893.0198049,893.0198678,893.0609276,893.0609276,893.0609276,895.6774834,300,1,[2.653949299827218],[2.6539799999445677],868958,1,2024-11-14_20h56.52.259,intentional binding exp,2024.1.5,None,2024-11-14 20h57.07.555199 +0530
0.7,1000,exp,13,4,160,5,895.7005013,,895.680054,895.7005013,896.6889935,896.6889935,896.7027692,897.1545758,space,0.4485697,None,897.1556224,897.8691644,898.2139195,898.1699039,898.1699753,898.2139195,898.2139195,898.2139195,901.0819085,400,1,[2.9060815998818725],[2.9061173999216408],868958,1,2024-11-14_20h56.52.259,intentional binding exp,2024.1.5,None,2024-11-14 20h57.07.555199 +0530
0.4,400,unexp,13,5,161,1,901.0966155,,901.0849811,901.0966155,902.0847843,902.0847843,902.1010141,902.4028446,space,0.3134457,None,902.4038015,902.8175423,903.1795122,903.1207277,903.1208853,903.1795122,903.1795122,903.1795122,907.4266272,300,1,[4.30065879994072],[4.300676199840382],868958,1,2024-11-14_20h56.52.259,intentional binding exp,2024.1.5,None,2024-11-14 20h57.07.555199 +0530
0.1,1000,exp,13,6,162,9,907.4479891,,907.4297205,907.4479891,908.4341882,908.4341882,908.4503159,908.7180395,space,0.2706179,None,908.7191118,908.8335657,909.1715198,909.1302093,909.1302798,909.1715198,909.1715198,909.1715198,911.3183603,100,1,[2.184388800058514],[2.1844073000829667],868958,1,2024-11-14_20h56.52.259,intentional binding exp,2024.1.5,None,2024-11-14 20h57.07.555199 +0530
0.7,1000,exp,13,7,163,11,911.3330782,,911.3202911,911.3330782,912.3323586,912.3323586,912.3323586,912.836488,space,0.4862087,None,912.8378178,913.5518056,913.8964903,913.8527837,913.8528796,913.8964903,913.8964903,913.8964903,915.9640391,300,1,[2.1074166998732835],[2.1074367999099195],868958,1,2024-11-14_20h56.52.259,intentional binding exp,2024.1.5,None,2024-11-14 20h57.07.555199 +0530
0.4,1000,exp,13,8,164,10,915.9816647,,915.9662289,915.9816647,916.9651576,916.9651576,916.9818069,917.2686477,space,0.2952541,None,917.2704563,917.6816413,918.0214044,917.9799027,917.9799836,918.0214044,918.0214044,918.0214044,921.0502862,200,1,[3.066163299838081],[3.06619569985196],868958,1,2024-11-14_20h56.52.259,intentional binding exp,2024.1.5,None,2024-11-14 20h57.07.555199 +0530
0.1,400,unexp,13,9,165,0,921.0654365,,921.0526059,921.0654365,922.062977,922.062977,922.0797456,922.5646886,space,0.5000357,None,922.565558,922.6708481,923.0073582,922.9708311,922.9708841,923.0073582,923.0073582,923.0073582,927.5842195,0,1,[4.609937600092962],[4.6099653001874685],868958,1,2024-11-14_20h56.52.259,intentional binding exp,2024.1.5,None,2024-11-14 20h57.07.555199 +0530
0.1,1000,exp,13,10,166,6,927.600729,,927.5879272,927.600729,928.595213,928.595213,928.6122679,929.6312217,space,1.0294013,None,929.6327519,929.7445985,930.0842521,930.0454328,930.0454979,930.0842521,930.0842521,930.0842521,932.6163356,400,1,[2.5675102998502553],[2.567528499988839],868958,1,2024-11-14_20h56.52.259,intentional binding exp,2024.1.5,None,2024-11-14 20h57.07.555199 +0530
0.4,1000,exp,13,11,167,7,932.6418707,,932.6181851,932.6418707,933.6275146,933.6275146,933.644093,933.998903,space,0.3516223,None,934.0003908,934.4109459,934.7440372,934.7096873,934.7097303,934.7440372,934.7440372,934.7440372,936.586802,300,1,[1.8739887999836355],[1.874008399900049],868958,1,2024-11-14_20h56.52.259,intentional binding exp,2024.1.5,None,2024-11-14 20h57.07.555199 +0530
0.7,400,unexp,14,0,168,2,936.6001291,,936.5901947,936.6001291,937.5932247,937.5932247,937.6097147,938.4166482,space,0.8039009,None,938.4185079,939.1269827,939.4794539,939.4304975,939.4305778,939.4794539,939.4794539,939.4794539,942.3151547,200,1,[2.880442399997264],[2.880465499823913],868958,1,2024-11-14_20h56.52.259,intentional binding exp,2024.1.5,None,2024-11-14 20h57.07.555199 +0530
0.1,400,unexp,14,1,169,0,942.3296692,,942.3176178,942.3296692,943.3250678,943.3250678,943.3420045,943.726919,space,0.3850537,None,943.7282573,943.8417309,944.1780549,944.1396544,944.1397193,944.1780549,944.1780549,944.1780549,946.4079309,100,1,[2.2642951998859644],[2.26431839982979],868958,1,2024-11-14_20h56.52.259,intentional binding exp,2024.1.5,None,2024-11-14 20h57.07.555199 +0530
0.7,1000,exp,14,2,170,5,946.4247431,,946.4101642,946.4247431,947.4241657,947.4241657,947.4241657,947.8103058,space,0.3814076,None,947.8118978,948.5246455,948.8523291,948.8199491,948.8199932,948.8523291,948.8523291,948.8523291,953.2348536,500,1,[4.410189399961382],[4.41021030000411],868958,1,2024-11-14_20h56.52.259,intentional binding exp,2024.1.5,None,2024-11-14 20h57.07.555199 +0530
0.4,1000,exp,14,3,171,10,953.2535462,,953.236646,953.2535462,954.2391784,954.2391784,954.2561195,954.2588293,space,0.0141301,None,954.2601688,954.6723944,955.0078277,954.9694243,954.9694896,955.0078277,955.0078277,955.0078277,957.676181,200,1,[2.7030803998932242],[2.7031320000533015],868958,1,2024-11-14_20h56.52.259,intentional binding exp,2024.1.5,None,2024-11-14 20h57.07.555199 +0530
0.1,1000,exp,14,4,172,3,957.6914416,,957.6789241,957.6914416,958.6904417,958.6904417,958.7044469,959.0762539,space,0.3660775,None,959.0780061,959.1885181,959.5184463,959.4895401,959.4895863,959.5184463,959.5184463,959.5184463,961.5667501,200,1,[2.0748068001121283],[2.0748193999752402],868958,1,2024-11-14_20h56.52.259,intentional binding exp,2024.1.5,None,2024-11-14 20h57.07.555199 +0530
0.7,1000,exp,14,5,173,11,961.5873807,,961.5681631,961.5873807,962.5731663,962.5731663,962.5894634,963.3404505,space,0.7621656,None,963.3420212,964.0536342,964.3939566,964.3501828,964.350255,964.3939566,964.3939566,964.3939566,966.2488205,300,1,[1.8932328999508172],[1.8932667998597026],868958,1,2024-11-14_20h56.52.259,intentional binding exp,2024.1.5,None,2024-11-14 20h57.07.555199 +0530
0.4,1000,exp,14,6,174,4,966.2617032,,966.2512682,966.2617032,967.2530004,967.2530004,967.2694682,968.0884562,space,0.8220856,None,968.089757,968.5026934,968.8518996,968.7994773,968.7995213,968.8518996,968.8518996,968.8518996,971.1593315,300,1,[2.355091799981892],[2.3551198998466134],868958,1,2024-11-14_20h56.52.259,intentional binding exp,2024.1.5,None,2024-11-14 20h57.07.555199 +0530
0.1,1000,exp,14,7,175,6,971.1759411,,971.1642653,971.1759411,972.1684631,972.1684631,972.1850684,973.0044897,space,0.8227917,None,973.0060115,973.1199366,973.462566,973.4212493,973.4213177,973.462566,973.462566,973.462566,976.5715143,600,1,[3.146516399923712],[3.1465374999679625],868958,1,2024-11-14_20h56.52.259,intentional binding exp,2024.1.5,None,2024-11-14 20h57.07.555199 +0530
0.4,400,unexp,14,8,176,1,976.5857625,,976.5735675,976.5857625,977.5836569,977.5836569,977.6005173,978.1198709,space,0.533059,None,978.1213202,978.5362915,,978.8408878,978.8410835,978.8995787,978.8995787,978.8995787,980.8832776,400,1,[2.0366182001307607],[2.036637500161305],868958,1,2024-11-14_20h56.52.259,intentional binding exp,2024.1.5,None,2024-11-14 20h57.07.555199 +0530
0.4,1000,exp,14,9,177,7,980.8996499,,980.8849843,980.8996499,981.900074,981.900074,981.900074,982.1014422,space,None,None,982.1034713,982.5159977,982.8571534,982.8202056,982.8202699,982.8571534,982.8571534,982.8571534,986.4224094,500,1,[3.5981902999337763],[3.5982160998973995],868958,1,2024-11-14_20h56.52.259,intentional binding exp,2024.1.5,None,2024-11-14 20h57.07.555199 +0530
0.7,1000,exp,14,10,178,8,986.4374398,,986.4250696,986.4374398,987.4320722,987.4320722,987.4482071,987.9512801,space,0.5165038,None,987.9527144,988.664441,988.987364,988.9600772,988.960122,988.987364,988.987364,988.987364,990.9315937,600,1,[1.968533700099215],[1.968564199982211],868958,1,2024-11-14_20h56.52.259,intentional binding exp,2024.1.5,None,2024-11-14 20h57.07.555199 +0530
0.1,1000,exp,14,11,179,9,990.9476868,,990.9341928,990.9476868,991.9468416,991.9468416,991.9468416,992.3329101,space,0.3789534,None,992.3341735,992.4470741,992.7761541,992.7493725,992.7494267,992.7761541,992.7761541,992.7761541,995.6640238,400,1,[2.9122366001829505],[2.9122503001708537],868958,1,2024-11-14_20h56.52.259,intentional binding exp,2024.1.5,None,2024-11-14 20h57.07.555199 +0530
0.7,1000,exp,15,0,180,11,995.6789911,,995.66616,995.6789911,996.6795696,996.6795696,996.6795696,997.6660954,space,0.9794056,None,997.6685917,998.3796634,998.7181122,998.6802997,998.6803969,998.7181122,998.7181122,998.7181122,1000.65844,500,1,[1.9737386000342667],[1.9737627001013607],868958,1,2024-11-14_20h56.52.259,intentional binding exp,2024.1.5,None,2024-11-14 20h57.07.555199 +0530
0.7,400,unexp,15,1,181,2,1000.672569,,1000.661663,1000.672569,1001.661841,1001.661841,1001.678351,1002.14734,space,0.4800837,None,1002.148588,1002.861077,1003.20107,1003.160136,1003.1602,1003.20107,1003.20107,1003.20107,1005.199096,200,1,[2.0354908001609147],[2.035509900189936],868958,1,2024-11-14_20h56.52.259,intentional binding exp,2024.1.5,None,2024-11-14 20h57.07.555199 +0530
0.4,1000,exp,15,2,182,7,1005.21316,,1005.201113,1005.21316,1006.210318,1006.210318,1006.226808,1006.496455,space,0.2819855,None,1006.497733,1006.910043,1007.252615,1007.209585,1007.209654,1007.252615,1007.252615,1007.252615,1008.566405,100,1,[1.3537067000288516],[1.3537205001339316],868958,1,2024-11-14_20h56.52.259,intentional binding exp,2024.1.5,None,2024-11-14 20h57.07.555199 +0530
0.4,1000,exp,15,3,183,10,1008.59087,,1008.567687,1008.59087,1009.576243,1009.576243,1009.593011,1009.862317,space,0.2753691,None,1009.863699,1010.27575,1010.643701,1010.58087,1010.580979,1010.643701,1010.643701,1010.643701,1012.595744,200,1,[2.0095889000222087],[2.009608400054276],868958,1,2024-11-14_20h56.52.259,intentional binding exp,2024.1.5,None,2024-11-14 20h57.07.555199 +0530
0.4,400,unexp,15,4,184,1,1012.610038,,1012.597961,1012.610038,1013.60851,1013.60851,1013.625099,1013.627971,space,0.0169286,None,1013.629459,1014.041642,1014.381553,1014.339902,1014.339966,1014.381553,1014.381553,1014.381553,1016.722565,300,1,[2.379048000089824],[2.379072700161487],868958,1,2024-11-14_20h56.52.259,intentional binding exp,2024.1.5,None,2024-11-14 20h57.07.555199 +0530
0.1,1000,exp,15,5,185,3,1016.741038,,1016.724805,1016.741038,1017.723726,1017.723726,1017.740372,1018.078655,space,0.3472943,None,1018.080256,1018.191199,1018.544681,1018.490485,1018.490627,1018.544681,1018.544681,1018.544681,1020.613715,400,1,[2.1183279000688344],[2.1183482001069933],868958,1,2024-11-14_20h56.52.259,intentional binding exp,2024.1.5,None,2024-11-14 20h57.07.555199 +0530
0.4,1000,exp,15,6,186,4,1020.627822,,1020.615888,1020.627822,1021.623365,1021.623365,1021.639928,1021.958854,space,0.3230028,None,1021.960409,1022.373213,1022.718293,1022.670246,1022.670345,1022.718293,1022.718293,1022.718293,1025.198305,500,1,[2.5233517999295145],[2.5233745998702943],868958,1,2024-11-14_20h56.52.259,intentional binding exp,2024.1.5,None,2024-11-14 20h57.07.555199 +0530
0.1,1000,exp,15,7,187,6,1025.213557,,1025.202594,1025.213557,1026.205475,1026.205475,1026.222325,1026.60805,space,0.3916397,None,1026.609369,1026.722311,1027.062493,1027.019613,1027.019684,1027.062493,1027.062493,1027.062493,1028.99923,200,1,[1.9762587998993695],[1.9762726998887956],868958,1,2024-11-14_20h56.52.259,intentional binding exp,2024.1.5,None,2024-11-14 20h57.07.555199 +0530
0.1,400,unexp,15,8,188,0,1029.021853,,1029.000668,1029.021853,1030.004689,1030.004689,1030.021241,1030.322797,space,0.3159101,None,1030.323613,1030.437419,1030.788795,1030.740261,1030.740378,1030.788795,1030.788795,1030.788795,1033.104373,300,1,[2.361116599990055],[2.361129199853167],868958,1,2024-11-14_20h56.52.259,intentional binding exp,2024.1.5,None,2024-11-14 20h57.07.555199 +0530
0.7,1000,exp,15,9,189,8,1033.120069,,1033.105643,1033.120069,1034.120424,1034.120424,1034.120424,1034.641024,space,0.5009541,None,1034.64237,1035.353287,1035.723456,1035.655347,1035.655457,1035.723456,1035.723456,1035.723456,1038.499867,200,1,[2.8365290998481214],[2.8365927999839187],868958,1,2024-11-14_20h56.52.259,intentional binding exp,2024.1.5,None,2024-11-14 20h57.07.555199 +0530
0.7,1000,exp,15,10,190,5,1038.516585,,1038.50392,1038.516585,1039.502277,1039.502277,1039.519159,1040.388105,space,0.8764601,None,1040.389453,1041.101876,1041.442079,1041.400313,1041.400377,1041.442079,1041.442079,1041.442079,1043.799917,300,1,[2.396148100029677],[2.396167299943045],868958,1,2024-11-14_20h56.52.259,intentional binding exp,2024.1.5,None,2024-11-14 20h57.07.555199 +0530
0.1,1000,exp,15,11,191,9,1043.817686,,1043.801801,1043.817686,1044.801233,1044.801233,1044.817469,1045.636619,space,0.8211978,None,1045.63816,1045.750996,1046.090574,1046.049939,1046.050003,1046.090574,1046.090574,1046.090574,1048.470009,400,1,[2.416537699988112],[2.4165562000125647],868958,1,2024-11-14_20h56.52.259,intentional binding exp,2024.1.5,None,2024-11-14 20h57.07.555199 +0530
0.4,1000,exp,16,0,192,4,1048.483657,,1048.471723,1048.483657,1049.483465,1049.483465,1049.483465,1049.819016,space,0.3226352,None,1049.820267,1050.233174,1050.570214,1050.52984,1050.529907,1050.570214,1050.570214,1050.570214,1052.994172,100,1,[2.4610985999461263],[2.461113299941644],868958,1,2024-11-14_20h56.52.259,intentional binding exp,2024.1.5,None,2024-11-14 20h57.07.555199 +0530
0.4,400,unexp,16,1,193,1,1053.015649,,1052.99556,1053.015649,1054.018056,1054.018056,1054.035067,1054.562611,space,0.5219918,None,1054.565227,1054.966364,1055.328809,1055.270446,1055.270549,1055.328809,1055.328809,1055.328809,1057.427082,200,1,[2.1520533999428153],[2.1520692999474704],868958,1,2024-11-14_20h56.52.259,intentional binding exp,2024.1.5,None,2024-11-14 20h57.07.555199 +0530
0.1,1000,exp,16,2,194,3,1057.448002,,1057.428585,1057.448002,1058.431117,1058.431117,1058.448045,1058.994717,space,0.5373014,None,1058.996597,1059.098497,1059.449703,1059.400774,1059.400865,1059.449703,1059.449703,1059.449703,1061.559766,300,1,[2.154144700150937],[2.1541695999912918],868958,1,2024-11-14_20h56.52.259,intentional binding exp,2024.1.5,None,2024-11-14 20h57.07.555199 +0530
0.1,1000,exp,16,3,195,6,1061.573816,,1061.562328,1061.573816,1062.566693,1062.566693,1062.583022,1062.985171,space,0.4075004,None,1062.987056,1063.098016,1063.460048,1063.400583,1063.400677,1063.460048,1063.460048,1063.460048,1066.430116,200,1,[3.0248282998800278],[3.0248511999379843],868958,1,2024-11-14_20h56.52.259,intentional binding exp,2024.1.5,None,2024-11-14 20h57.07.555199 +0530
0.7,1000,exp,16,4,196,8,1066.445886,,1066.432409,1066.445886,1067.445873,1067.445873,1067.445873,1067.798865,space,0.3403293,None,1067.800209,1068.512506,1068.853122,1068.809658,1068.809737,1068.853122,1068.853122,1068.853122,1070.750679,300,1,[1.9370251998770982],[1.9370470999274403],868958,1,2024-11-14_20h56.52.259,intentional binding exp,2024.1.5,None,2024-11-14 20h57.07.555199 +0530
0.7,1000,exp,16,5,197,5,1070.76499,,1070.752814,1070.76499,1071.76092,1071.76092,1071.77764,1072.083468,space,0.3185549,None,1072.085762,1072.794097,1073.151506,1073.095908,1073.096001,1073.151506,1073.151506,1073.151506,1074.861727,400,1,[1.76143079996109],[1.7614460000768304],868958,1,2024-11-14_20h56.52.259,intentional binding exp,2024.1.5,None,2024-11-14 20h57.07.555199 +0530
0.4,1000,exp,16,6,198,10,1074.876805,,1074.863218,1074.876805,1075.877132,1075.877132,1075.877132,1076.162915,space,0.2784465,None,1076.164168,1076.576878,1076.918845,1076.879556,1076.879599,1076.918845,1076.918845,1076.918845,1079.110162,400,1,[2.227894199779257],[2.227950499858707],868958,1,2024-11-14_20h56.52.259,intentional binding exp,2024.1.5,None,2024-11-14 20h57.07.555199 +0530
0.1,1000,exp,16,7,199,9,1079.126039,,1079.112436,1079.126039,1080.118246,1080.118246,1080.135485,1080.593211,space,0.4532242,None,1080.595436,1080.695457,1081.055115,1081.000467,1081.000576,1081.055115,1081.055115,1081.055115,1083.055737,200,1,[2.049527399940416],[2.04955009999685],868958,1,2024-11-14_20h56.52.259,intentional binding exp,2024.1.5,None,2024-11-14 20h57.07.555199 +0530
0.7,400,unexp,16,8,200,2,1083.075529,,1083.057858,1083.075529,1084.058461,1084.058461,1084.07527,1085.416449,space,1.3500457,None,1085.421272,1086.126834,1086.496498,1086.431195,1086.431323,1086.496498,1086.496498,1086.496498,1088.875782,200,1,[2.4383316999301314],[2.438360899919644],868958,1,2024-11-14_20h56.52.259,intentional binding exp,2024.1.5,None,2024-11-14 20h57.07.555199 +0530
0.4,1000,exp,16,9,201,7,1088.892854,,1088.879211,1088.892854,1089.891702,1089.891702,1089.907805,1090.244456,space,0.348922,None,1090.246129,1090.657409,1090.990855,1090.960342,1090.960393,1090.990855,1090.990855,1090.990855,1094.419028,100,1,[3.4538694999646395],[3.4539041998796165],868958,1,2024-11-14_20h56.52.259,intentional binding exp,2024.1.5,None,2024-11-14 20h57.07.555199 +0530
0.1,400,unexp,16,10,202,0,1094.431527,,1094.421308,1094.431527,1095.422436,1095.422436,1095.439093,1095.909422,space,0.4739004,None,1095.911006,1096.022666,1096.364223,1096.320015,1096.320086,1096.364223,1096.364223,1096.364223,1098.28956,200,1,[1.9659390999004245],[1.9659519998822361],868958,1,2024-11-14_20h56.52.259,intentional binding exp,2024.1.5,None,2024-11-14 20h57.07.555199 +0530
0.7,1000,exp,16,11,203,11,1098.304541,,1098.290781,1098.304541,1099.305545,1099.305545,1099.305545,1099.69148,space,0.3827031,None,1099.693171,1100.405597,1100.744394,1100.711061,1100.711111,1100.744394,1100.744394,1100.744394,1105.255704,100,1,[4.536946600070223],[4.536962300073355],868958,1,2024-11-14_20h56.52.259,intentional binding exp,2024.1.5,None,2024-11-14 20h57.07.555199 +0530
0.7,400,unexp,17,0,204,2,1105.269599,,1105.257298,1105.269599,1106.269848,1106.269848,1106.269848,1106.805532,space,0.5284281,None,1106.806818,1107.5213,1107.86328,1107.822532,1107.822604,1107.86328,1107.86328,1107.86328,1110.078207,200,1,[2.2517789001576602],[2.2518048000056297],868958,1,2024-11-14_20h56.52.259,intentional binding exp,2024.1.5,None,2024-11-14 20h57.07.555199 +0530
0.7,1000,exp,17,1,205,5,1110.092891,,1110.082667,1110.092891,1111.085195,1111.085195,1111.101665,1111.981517,space,0.8715877,None,1111.984227,1112.686495,1113.037462,1112.997881,1112.997939,1113.037462,1113.037462,1113.037462,1116.672934,500,1,[3.6713449999224395],[3.6713692999910563],868958,1,2024-11-14_20h56.52.259,intentional binding exp,2024.1.5,None,2024-11-14 20h57.07.555199 +0530
0.4,1000,exp,17,2,206,4,1116.689707,,1116.676997,1116.689707,1117.684492,1117.684492,1117.700923,1118.536129,space,0.8404438,None,1118.537374,1118.950095,1119.288498,1119.249981,1119.250044,1119.288498,1119.288498,1119.288498,1122.221603,400,1,[2.9680924999993294],[2.9681145001668483],868958,1,2024-11-14_20h56.52.259,intentional binding exp,2024.1.5,None,2024-11-14 20h57.07.555199 +0530
0.4,1000,exp,17,3,207,10,1122.236903,,1122.224081,1122.236903,1123.232954,1123.232954,1123.249591,1123.637261,space,0.3851735,None,1123.638674,1124.049326,1124.392181,1124.34994,1124.35004,1124.392181,1124.392181,1124.392181,1127.298285,300,1,[2.944460100028664],[2.9444850001018494],868958,1,2024-11-14_20h56.52.259,intentional binding exp,2024.1.5,None,2024-11-14 20h57.07.555199 +0530
0.1,1000,exp,17,4,208,9,1127.31499,,1127.300773,1127.31499,1128.315108,1128.315108,1128.315108,1128.635375,space,0.3165439,None,1128.636984,1128.747625,1129.100603,1129.050243,1129.050322,1129.100603,1129.100603,1129.100603,1132.154025,400,1,[3.099452800117433],[3.0994806999806315],868958,1,2024-11-14_20h56.52.259,intentional binding exp,2024.1.5,None,2024-11-14 20h57.07.555199 +0530
0.1,1000,exp,17,5,209,3,1132.170051,,1132.156832,1132.170051,1133.16426,1133.16426,1133.179397,1133.715742,space,0.5461076,None,1133.716534,1133.829859,1134.169238,1134.129855,1134.129918,1134.169238,1134.169238,1134.169238,1137.489502,400,1,[3.355783599894494],[3.3558011997956783],868958,1,2024-11-14_20h56.52.259,intentional binding exp,2024.1.5,None,2024-11-14 20h57.07.555199 +0530
0.7,1000,exp,17,6,210,8,1137.509937,,1137.492242,1137.509937,1138.495977,1138.495977,1138.512783,1139.032092,space,0.5223998,None,1139.033499,1139.744946,1140.099537,1140.050556,1140.050627,1140.099537,1140.099537,1140.099537,1142.824727,200,1,[2.7697164001874626],[2.769849300151691],868958,1,2024-11-14_20h56.52.259,intentional binding exp,2024.1.5,None,2024-11-14 20h57.07.555199 +0530
0.1,1000,exp,17,7,211,6,1142.836617,,1142.826542,1142.836617,1143.827874,1143.827874,1143.844303,1144.61385,space,0.7808983,None,1144.615105,1144.727413,1145.069983,1145.030134,1145.030203,1145.069983,1145.069983,1145.069983,1148.233153,200,1,[3.199581600027159],[3.1996011999435723],868958,1,2024-11-14_20h56.52.259,intentional binding exp,2024.1.5,None,2024-11-14 20h57.07.555199 +0530
0.4,1000,exp,17,8,212,7,1148.257496,,1148.234842,1148.257496,1149.243263,1149.243263,1149.25998,1149.612415,space,0.3598515,None,1149.613701,1150.025989,1150.355711,1150.329695,1150.329738,1150.355711,1150.355711,1150.355711,1152.625419,300,1,[2.2930736001580954],[2.293094400083646],868958,1,2024-11-14_20h56.52.259,intentional binding exp,2024.1.5,None,2024-11-14 20h57.07.555199 +0530
0.4,400,unexp,17,9,213,1,1152.642153,,1152.627433,1152.642153,1153.64193,1153.64193,1153.64193,1154.027843,space,0.3736901,None,1154.02915,1154.441935,1154.777334,1154.739876,1154.73994,1154.777334,1154.777334,1154.777334,1159.471566,400,1,[4.728433599928394],[4.728450099937618],868958,1,2024-11-14_20h56.52.259,intentional binding exp,2024.1.5,None,2024-11-14 20h57.07.555199 +0530
0.7,1000,exp,17,10,214,11,1159.490339,,1159.473153,1159.490339,1160.473392,1160.473392,1160.490236,1160.791373,space,0.3086374,None,1160.792196,1161.506674,1161.847729,1161.810656,1161.81072,1161.847729,1161.847729,1161.847729,1164.23393,500,1,[2.420240700012073],[2.4202541999984533],868958,1,2024-11-14_20h56.52.259,intentional binding exp,2024.1.5,None,2024-11-14 20h57.07.555199 +0530
0.1,400,unexp,17,11,215,0,1164.255531,,1164.235176,1164.255531,1165.243283,1165.243283,1165.271624,1165.561352,space,0.3132448,None,1165.563185,1165.673653,1166.009991,1165.974666,1165.974722,1166.009991,1166.009991,1166.009991,1168.712881,400,1,[2.734817399876192],[2.734845799859613],868958,1,2024-11-14_20h56.52.259,intentional binding exp,2024.1.5,None,2024-11-14 20h57.07.555199 +0530
0.4,400,unexp,18,0,216,1,1168.72796,,1168.716589,1168.72796,1169.722887,1169.722887,1169.73781,1170.258566,space,0.5286661,None,1170.260027,1170.671777,1170.998229,1170.969615,1170.969661,1170.998229,1170.998229,1170.998229,1172.686469,300,1,[1.7136532999575138],[1.7136816999409348],868958,1,2024-11-14_20h56.52.259,intentional binding exp,2024.1.5,None,2024-11-14 20h57.07.555199 +0530
0.1,1000,exp,18,1,217,6,1172.701462,,1172.690115,1172.701462,1173.691205,1173.691205,1173.717938,1173.974517,space,0.277554,None,1173.976055,1174.087937,1174.439767,1174.390606,1174.390718,1174.439767,1174.439767,1174.439767,1176.891084,200,1,[2.495703599881381],[2.49575740005821],868958,1,2024-11-14_20h56.52.259,intentional binding exp,2024.1.5,None,2024-11-14 20h57.07.555199 +0530
0.1,400,unexp,18,2,218,0,1176.907836,,1176.894146,1176.907836,1177.902955,1177.902955,1177.919408,1180.437161,space,2.531744,None,1180.43798,1180.551842,1180.877043,1180.850105,1180.850162,1180.877043,1180.877043,1180.877043,1183.854773,300,1,[3.0020936001092196],[3.0021119001321495],868958,1,2024-11-14_20h56.52.259,intentional binding exp,2024.1.5,None,2024-11-14 20h57.07.555199 +0530
0.7,1000,exp,18,3,219,11,1183.868559,,1183.856462,1183.868559,1184.867737,1184.867737,1184.867737,1185.269723,space,0.3985984,None,1185.270599,1185.983915,1186.309673,1186.280133,1186.280181,1186.309673,1186.309673,1186.309673,1188.208219,300,1,[1.9253372000530362],[1.9253571000881493],868958,1,2024-11-14_20h56.52.259,intentional binding exp,2024.1.5,None,2024-11-14 20h57.07.555199 +0530
0.4,1000,exp,18,4,220,10,1188.231425,,1188.211346,1188.231425,1189.21673,1189.21673,1189.233613,1190.13586,space,0.9083146,None,1190.137103,1190.550346,1190.892468,1190.85,1190.850071,1190.892468,1190.892468,1190.892468,1192.894576,200,1,[2.040545199997723],[2.040571300080046],868958,1,2024-11-14_20h56.52.259,intentional binding exp,2024.1.5,None,2024-11-14 20h57.07.555199 +0530
0.1,1000,exp,18,5,221,9,1192.915864,,1192.896624,1192.915864,1193.899232,1193.899232,1193.916031,1194.301606,space,0.3892174,None,1194.303074,1194.415826,1194.744583,1194.719555,1194.719595,1194.744583,1194.744583,1194.744583,1197.570554,100,1,[2.84834360005334],[2.848366599995643],868958,1,2024-11-14_20h56.52.259,intentional binding exp,2024.1.5,None,2024-11-14 20h57.07.555199 +0530
0.4,1000,exp,18,6,222,4,1197.584794,,1197.572713,1197.584794,1198.581074,1198.581074,1198.597593,1198.932746,space,0.345178,None,1198.933624,1199.348853,1199.720295,1199.650778,1199.65087,1199.720295,1199.720295,1199.720295,1201.408639,200,1,[1.7532498999498785],[1.7532663000747561],868958,1,2024-11-14_20h56.52.259,intentional binding exp,2024.1.5,None,2024-11-14 20h57.07.555199 +0530
0.7,1000,exp,18,7,223,5,1201.431206,,1201.410553,1201.431206,1202.414081,1202.414081,1202.430501,1202.799542,space,0.373427,None,1202.800807,1203.513569,1203.858173,1203.810565,1203.810651,1203.858173,1203.858173,1203.858173,1205.60367,100,1,[1.7885402999818325],[1.788561100140214],868958,1,2024-11-14_20h56.52.259,intentional binding exp,2024.1.5,None,2024-11-14 20h57.07.555199 +0530
0.4,1000,exp,18,8,224,7,1205.61839,,1205.606338,1205.61839,1206.612764,1206.612764,1206.629503,1207.082037,space,0.4651408,None,1207.083336,1207.495953,1207.838627,1207.800137,1207.800204,1207.838627,1207.838627,1207.838627,1209.981645,200,1,[2.1780821001157165],[2.178099500015378],868958,1,2024-11-14_20h56.52.259,intentional binding exp,2024.1.5,None,2024-11-14 20h57.07.555199 +0530
0.7,1000,exp,18,9,225,8,1209.995297,,1209.983353,1209.995297,1210.99531,1210.99531,1210.99531,1211.414679,space,0.4053451,None,1211.41608,1212.128582,1212.471088,1212.430258,1212.430328,1212.471088,1212.471088,1212.471088,1214.544285,300,1,[2.1103317998349667],[2.110350599978119],868958,1,2024-11-14_20h56.52.259,intentional binding exp,2024.1.5,None,2024-11-14 20h57.07.555199 +0530
0.7,400,unexp,18,10,226,2,1214.560904,,1214.546206,1214.560904,1215.560635,1215.560635,1215.560635,1215.881136,space,0.3070303,None,1215.882681,1216.594321,1216.941491,1216.890673,1216.890754,1216.941491,1216.941491,1216.941491,1218.660959,200,1,[1.7659501999150962],[1.765972400084138],868958,1,2024-11-14_20h56.52.259,intentional binding exp,2024.1.5,None,2024-11-14 20h57.07.555199 +0530
0.1,1000,exp,18,11,227,3,1218.676667,,1218.663258,1218.676667,1219.677314,1219.677314,1219.677314,1220.04546,space,0.3590614,None,1220.04672,1220.159559,1220.499963,1220.460425,1220.460487,1220.499963,1220.499963,1220.499963,1222.974293,400,1,[2.5105529001448303],[2.5105785001069307],868958,1,2024-11-14_20h56.52.259,intentional binding exp,2024.1.5,None,2024-11-14 20h57.07.555199 +0530
0.1,400,unexp,19,0,228,0,1222.991507,,1222.975671,1222.991507,1223.976672,1223.976672,1223.992673,1224.26323,space,0.2779268,None,1224.265099,1224.375946,1224.723594,1224.680787,1224.680928,1224.723594,1224.723594,1224.723594,1226.980122,500,1,[2.294385800138116],[2.294410000089556],868958,1,2024-11-14_20h56.52.259,intentional binding exp,2024.1.5,None,2024-11-14 20h57.07.555199 +0530
0.4,1000,exp,19,1,229,10,1226.995486,,1226.982677,1226.995486,1227.996066,1227.996066,1228.022135,1228.310829,space,0.3021048,None,1228.312241,1228.726044,1229.088819,1229.038743,1229.038852,1229.088819,1229.088819,1229.088819,1231.30321,600,1,[2.258761999895796],[2.2587951999157667],868958,1,2024-11-14_20h56.52.259,intentional binding exp,2024.1.5,None,2024-11-14 20h57.07.555199 +0530
0.4,400,unexp,19,2,230,1,1231.318497,,1231.306991,1231.318497,1232.306792,1232.306792,1232.323226,1232.991983,space,0.6741089,None,1232.993242,1233.406457,1233.735111,1233.710092,1233.710137,1233.735111,1233.735111,1233.735111,1235.591026,400,1,[1.8784032000694424],[1.8784237001091242],868958,1,2024-11-14_20h56.52.259,intentional binding exp,2024.1.5,None,2024-11-14 20h57.07.555199 +0530
0.1,1000,exp,19,3,231,9,1235.60599,,1235.592952,1235.60599,1236.605418,1236.605418,1236.605418,1236.960513,space,0.3353357,None,1236.961874,1237.072365,1237.413324,1237.370096,1237.37017,1237.413324,1237.413324,1237.413324,1239.445595,500,1,[2.0716931000351906],[2.071718599880114],868958,1,2024-11-14_20h56.52.259,intentional binding exp,2024.1.5,None,2024-11-14 20h57.07.555199 +0530
0.7,1000,exp,19,4,232,11,1239.461885,,1239.450546,1239.461885,1240.454814,1240.454814,1240.471346,1240.857368,space,0.3963163,None,1240.858763,1241.571251,1241.909347,1241.870708,1241.870774,1241.909347,1241.909347,1241.909347,1245.768073,700,1,[3.8938603999558836],[3.8938769998494536],868958,1,2024-11-14_20h56.52.259,intentional binding exp,2024.1.5,None,2024-11-14 20h57.07.555199 +0530
0.7,1000,exp,19,5,233,5,1245.786376,,1245.769693,1245.786376,1246.770031,1246.770031,1246.786524,1247.105463,space,0.323081,None,1247.106711,1247.819596,1248.16212,1248.120256,1248.120322,1248.16212,1248.16212,1248.16212,1251.308771,400,1,[3.1847735999617726],[3.184794900007546],868958,1,2024-11-14_20h56.52.259,intentional binding exp,2024.1.5,None,2024-11-14 20h57.07.555199 +0530
0.4,1000,exp,19,6,234,7,1251.322947,,1251.310844,1251.322947,1252.319129,1252.319129,1252.335776,1253.83757,space,1.5097227,None,1253.838716,1254.252599,1254.606179,1254.551035,1254.551129,1254.606179,1254.606179,1254.606179,1256.298445,400,1,[1.7428858999628574],[1.742906800005585],868958,1,2024-11-14_20h56.52.259,intentional binding exp,2024.1.5,None,2024-11-14 20h57.07.555199 +0530
0.7,1000,exp,19,7,235,8,1256.317475,,1256.300415,1256.317475,1257.300619,1257.300619,1257.317376,1257.752179,space,0.4487232,None,1257.753012,1258.452524,1258.792681,1258.753267,1258.75333,1258.792681,1258.792681,1258.792681,1261.451619,300,1,[2.694488100009039],[2.694510699948296],868958,1,2024-11-14_20h56.52.259,intentional binding exp,2024.1.5,None,2024-11-14 20h57.07.555199 +0530
0.7,400,unexp,19,8,236,2,1261.468155,,1261.454427,1261.468155,1262.466327,1262.466327,1262.482739,1262.7028,space,0.2338168,None,1262.705074,1263.416217,1263.751034,1263.720075,1263.720115,1263.751034,1263.751034,1263.751034,1267.705299,200,1,[3.982920000096783],[3.982938400004059],868958,1,2024-11-14_20h56.52.259,intentional binding exp,2024.1.5,None,2024-11-14 20h57.07.555199 +0530
0.1,1000,exp,19,9,237,6,1267.729002,,1267.706728,1267.729002,1268.715375,1268.715375,1268.731311,1269.217364,space,0.4947524,None,1269.218613,1269.331264,1269.668008,1269.630591,1269.630656,1269.668008,1269.668008,1269.668008,1271.459141,500,1,[1.8251821999438107],[1.8252013998571783],868958,1,2024-11-14_20h56.52.259,intentional binding exp,2024.1.5,None,2024-11-14 20h57.07.555199 +0530
0.1,1000,exp,19,10,238,3,1271.480745,,1271.461017,1271.480745,1272.464874,1272.464874,1272.48051,1272.981866,space,0.5085545,None,1272.982644,1273.09653,1273.426323,1273.4002,1273.40024,1273.426323,1273.426323,1273.426323,1276.147688,400,1,[2.7446596999652684],[2.744684800039977],868958,1,2024-11-14_20h56.52.259,intentional binding exp,2024.1.5,None,2024-11-14 20h57.07.555199 +0530
0.4,1000,exp,19,11,239,4,1276.164234,,1276.150842,1276.164234,1277.163169,1277.163169,1277.163169,1277.537762,space,0.3532702,None,1277.539509,1277.94645,1278.303581,1278.251007,1278.251089,1278.303581,1278.303581,1278.303581,1280.391047,200,1,[2.135725500062108],[2.135769700165838],868958,1,2024-11-14_20h56.52.259,intentional binding exp,2024.1.5,None,2024-11-14 20h57.07.555199 +0530
0.1,1000,exp,20,0,240,6,1280.411917,,1280.393728,1280.411917,1281.395113,1281.395113,1281.411794,1281.865787,space,0.4523569,None,1281.86703,1281.978428,1282.345818,1282.281524,1282.281664,1282.345818,1282.345818,1282.345818,1284.045085,100,1,[1.7582070000935346],[1.758226100122556],868958,1,2024-11-14_20h56.52.259,intentional binding exp,2024.1.5,None,2024-11-14 20h57.07.555199 +0530
0.7,1000,exp,20,1,241,11,1284.060673,,1284.046982,1284.060673,1285.060846,1285.060846,1285.060846,1285.496581,space,0.4230092,None,1285.498032,1286.210517,1286.549336,1286.510197,1286.510297,1286.549336,1286.549336,1286.549336,1289.118897,500,1,[2.604509999975562],[2.6045438000001013],868958,1,2024-11-14_20h56.52.259,intentional binding exp,2024.1.5,None,2024-11-14 20h57.07.555199 +0530
0.4,1000,exp,20,2,242,7,1289.137148,,1289.124719,1289.137148,1290.126366,1290.126366,1290.142738,1290.495824,space,0.3670714,None,1290.497107,1290.909565,1291.24879,1291.210268,1291.210332,1291.24879,1291.24879,1291.24879,1294.867063,300,1,[3.653458299813792],[3.653475899947807],868958,1,2024-11-14_20h56.52.259,intentional binding exp,2024.1.5,None,2024-11-14 20h57.07.555199 +0530
0.7,400,unexp,20,3,243,2,1294.889279,,1294.871155,1294.889279,1295.875114,1295.875114,1295.891725,1295.911992,space,0.0197828,None,1295.913287,1296.62488,1296.972003,1296.925649,1296.925713,1296.972003,1296.972003,1296.972003,1299.870997,600,1,[2.941742300055921],[2.941764499992132],868958,1,2024-11-14_20h56.52.259,intentional binding exp,2024.1.5,None,2024-11-14 20h57.07.555199 +0530
0.1,1000,exp,20,4,244,3,1299.890291,,1299.873414,1299.890291,1300.874686,1300.874686,1300.891197,1302.409896,space,1.5318984,None,1302.411124,1302.523496,1302.874438,1302.820806,1302.820955,1302.874438,1302.874438,1302.874438,1306.096446,200,1,[3.2712298000697047],[3.271246900083497],868958,1,2024-11-14_20h56.52.259,intentional binding exp,2024.1.5,None,2024-11-14 20h57.07.555199 +0530
0.4,1000,exp,20,5,245,4,1306.119961,,1306.098323,1306.119961,1307.10534,1307.10534,1307.122509,1307.424654,space,0.3122034,None,1307.426238,1307.838734,1308.180227,1308.140727,1308.140792,1308.180227,1308.180227,1308.180227,1310.866383,200,1,[2.7221696998458356],[2.7221922997850925],868958,1,2024-11-14_20h56.52.259,intentional binding exp,2024.1.5,None,2024-11-14 20h57.07.555199 +0530
0.1,1000,exp,20,6,246,9,1310.88781,,1310.86848,1310.88781,1311.87056,1311.87056,1311.887728,1312.355553,space,0.4686123,None,1312.356356,1312.470574,1312.795319,1312.76988,1312.769928,1312.795319,1312.795319,1312.795319,1315.182754,400,1,[2.408438399899751],[2.40847250004299],868958,1,2024-11-14_20h56.52.259,intentional binding exp,2024.1.5,None,2024-11-14 20h57.07.555199 +0530
0.4,1000,exp,20,7,247,10,1315.194921,,1315.18505,1315.194921,1316.186823,1316.186823,1316.203605,1316.605683,space,0.4041798,None,1316.60693,1317.019587,1317.359725,1317.320234,1317.320299,1317.359725,1317.359725,1317.359725,1319.381326,600,1,[2.0571981999091804],[2.0572281000204384],868958,1,2024-11-14_20h56.52.259,intentional binding exp,2024.1.5,None,2024-11-14 20h57.07.555199 +0530
0.7,1000,exp,20,8,248,5,1319.40265,,1319.38357,1319.40265,1320.385629,1320.385629,1320.402414,1320.691862,space,0.2879219,None,1320.69353,1321.404174,1321.753449,1321.701027,1321.701132,1321.753449,1321.753449,1321.753449,1323.999645,400,1,[2.292224599979818],[2.2922418999951333],868958,1,2024-11-14_20h56.52.259,intentional binding exp,2024.1.5,None,2024-11-14 20h57.07.555199 +0530
0.7,1000,exp,20,9,249,8,1324.018136,,1324.001502,1324.018136,1325.001408,1325.001408,1325.018088,1325.84027,space,0.830243,None,1325.842139,1326.552178,1326.907234,1326.851105,1326.851199,1326.907234,1326.907234,1326.907234,1329.52284,200,1,[2.6671722000464797],[2.6671891999430954],868958,1,2024-11-14_20h56.52.259,intentional binding exp,2024.1.5,None,2024-11-14 20h57.07.555199 +0530
0.1,400,unexp,20,10,250,0,1329.547657,,1329.524499,1329.547657,1330.53343,1330.53343,1330.550166,1331.052666,space,0.5135066,None,1331.053912,1331.166757,1331.509199,1331.470561,1331.470624,1331.509199,1331.509199,1331.509199,1334.502916,300,1,[3.028532999800518],[3.0287643999326974],868958,1,2024-11-14_20h56.52.259,intentional binding exp,2024.1.5,None,2024-11-14 20h57.07.555199 +0530
0.4,400,unexp,20,11,251,1,1334.516559,,1334.504861,1334.516559,1335.515115,1335.515115,1335.531742,1335.887463,space,0.369113,None,1335.88941,1336.299871,1336.658786,1336.600846,1336.600941,1336.658786,1336.658786,1336.658786,1339.319567,400,1,[2.713780099991709],[2.7138058999553323],868958,1,2024-11-14_20h56.52.259,intentional binding exp,2024.1.5,None,2024-11-14 20h57.07.555199 +0530
0.1,400,unexp,21,0,252,0,1339.333132,,1339.321058,1339.333132,1340.331179,1340.331179,1340.347748,1340.73372,space,0.3966612,None,1340.734974,1340.847587,1341.192822,1341.150722,1341.150802,1341.192822,1341.192822,1341.192822,1343.801482,300,1,[2.6469510002061725],[2.6469756001606584],868958,1,2024-11-14_20h56.52.259,intentional binding exp,2024.1.5,None,2024-11-14 20h57.07.555199 +0530
0.4,1000,exp,21,1,253,10,1343.81626,,1343.804207,1343.81626,1344.814247,1344.814247,1344.830045,1345.183989,space,0.3513186,None,1345.185269,1345.596464,1345.938361,1345.900713,1345.900778,1345.938361,1345.938361,1345.938361,1348.199355,600,1,[2.2952841999940574],[2.295299499994144],868958,1,2024-11-14_20h56.52.259,intentional binding exp,2024.1.5,None,2024-11-14 20h57.07.555199 +0530
0.4,1000,exp,21,2,254,7,1348.212735,,1348.201019,1348.212735,1349.212546,1349.212546,1349.212546,1349.564718,space,0.3383478,None,1349.566009,1349.978796,1350.319158,1350.280658,1350.280729,1350.319158,1350.319158,1350.319158,1352.128603,400,1,[1.8441697999369353],[1.84419499989599],868958,1,2024-11-14_20h56.52.259,intentional binding exp,2024.1.5,None,2024-11-14 20h57.07.555199 +0530
0.4,400,unexp,21,3,255,1,1352.14518,,1352.130924,1352.14518,1353.14472,1353.14472,1353.14472,1353.447354,space,0.2951668,None,1353.448972,1353.861079,1354.203387,1354.160709,1354.160775,1354.203387,1354.203387,1354.203387,1356.866466,400,1,[2.7003357999492437],[2.700367899844423],868958,1,2024-11-14_20h56.52.259,intentional binding exp,2024.1.5,None,2024-11-14 20h57.07.555199 +0530
0.7,1000,exp,21,4,256,8,1356.880912,,1356.869886,1356.880912,1357.877205,1357.877205,1357.893414,1358.214731,space,0.323502,None,1358.217336,1358.926158,1359.291458,1359.231606,1359.231693,1359.291458,1359.291458,1359.291458,1364.924298,200,1,[5.68658890016377],[5.686618600040674],868958,1,2024-11-14_20h56.52.259,intentional binding exp,2024.1.5,None,2024-11-14 20h57.07.555199 +0530
